STUDYID,USUBJID,SUBJID,SITEID,COUNTRY,ARM,ACTARM,TRT01P,TRT01PN,TRT01A,TRT01AN,AGE,AGEU,AGEGR1,AGEGR1N,SEX,RACE,ETHNIC,RFICDT,RANDDT,TRTSDT,TRTEDT,TRTDURD,EOSSTT,DCSREAS,DCSREASP,SAFFL,ITTFL,COMPLFL,HEIGHTBL,WEIGHTBL,BMIBL
ABC-01,ABC-01-01-001,001,01,USA,Drug A,Drug A,Drug A,2,Drug A,2,54,YEARS,<65,1,F,WHITE,NOT HISPANIC OR LATINO,2024-02-20,2024-03-01,2024-03-01,2024-03-28,28,COMPLETED,,,Y,Y,Y,165,70.2,25.79
ABC-01,ABC-01-01-002,002,01,JPN,Placebo,Placebo,Placebo,1,Placebo,1,60,YEARS,<65,1,M,ASIAN,NOT HISPANIC OR LATINO,2024-02-22,2024-03-04,2024-03-04,2024-03-31,28,COMPLETED,,,Y,Y,Y,178,81.5,25.72
ABC-01,ABC-01-01-003,003,01,USA,Drug A,Drug A,Drug A,2,Drug A,2,46,YEARS,<65,1,F,BLACK OR AFRICAN AMERICAN,NOT HISPANIC OR LATINO,2024-02-25,2024-03-05,2024-03-05,2024-04-01,28,COMPLETED,,,Y,Y,Y,160,58,22.66
ABC-01,ABC-01-01-004,004,01,USA,Placebo,Placebo,Placebo,1,Placebo,1,66,YEARS,>=65,2,M,WHITE,HISPANIC OR LATINO,2024-02-26,2024-03-06,2024-03-06,2024-03-25,20,DISCONTINUED,ADVERSE EVENT,Discontinued: Adverse event,Y,Y,N,175,90.4,29.52
ABC-01,ABC-01-02-001,001,02,GBR,Drug A,Drug A,Drug A,2,Drug A,2,51,YEARS,<65,1,M,WHITE,NOT HISPANIC OR LATINO,2024-03-01,2024-03-11,2024-03-11,2024-04-07,28,COMPLETED,,,Y,Y,Y,182,88.3,26.66
ABC-01,ABC-01-02-002,002,02,JPN,Placebo,Placebo,Placebo,1,Placebo,1,43,YEARS,<65,1,F,ASIAN,NOT HISPANIC OR LATINO,2024-03-02,2024-03-12,2024-03-12,2024-04-08,28,COMPLETED,,,Y,Y,Y,158,55.5,22.23
ABC-01,ABC-01-02-003,003,02,USA,Drug A,Drug A,Drug A,2,Drug A,2,57,YEARS,<65,1,F,WHITE,NOT HISPANIC OR LATINO,2024-03-04,2024-03-14,2024-03-14,2024-04-10,28,COMPLETED,,,Y,Y,Y,170,72,24.91
ABC-01,ABC-01-02-004,004,02,USA,Placebo,Placebo,Placebo,1,Placebo,1,68,YEARS,>=65,2,M,BLACK OR AFRICAN AMERICAN,UNKNOWN,2024-03-05,2024-03-15,2024-03-15,2024-04-11,28,COMPLETED,,,Y,Y,Y,168,80.2,28.42
