{
 "study": "ABC-01",
 "domains": [
  {
   "name": "DM",
   "class": "Special Purpose",
   "structure": "One record per subject",
   "variables": [
    {
     "name": "STUDYID",
     "label": "Study Identifier",
     "type": "Char",
     "core": "Req",
     "origin": "Assigned",
     "srcData": "dm_raw",
     "srcVar": "STUDYID",
     "rule": "Constant \"ABC-01\"",
     "ct": "",
     "notes": ""
    },
    {
     "name": "DOMAIN",
     "label": "Domain Abbreviation",
     "type": "Char",
     "core": "Req",
     "origin": "Assigned",
     "srcData": "",
     "srcVar": "",
     "rule": "Literal \"DM\"",
     "ct": "",
     "notes": ""
    },
    {
     "name": "USUBJID",
     "label": "Unique Subject Identifier",
     "type": "Char",
     "core": "Req",
     "origin": "Derived",
     "srcData": "dm_raw",
     "srcVar": "SITEID, SUBJID",
     "rule": "STUDYID || \"-\" || SITEID || \"-\" || SUBJID",
     "ct": "",
     "notes": "Keep IDs as character"
    },
    {
     "name": "SUBJID",
     "label": "Subject Identifier for the Study",
     "type": "Char",
     "core": "Req",
     "origin": "Collected",
     "srcData": "dm_raw",
     "srcVar": "SUBJID",
     "rule": "As collected (site-local id)",
     "ct": "",
     "notes": "Not unique across sites"
    },
    {
     "name": "RFSTDTC",
     "label": "Subject Reference Start Date/Time",
     "type": "Char",
     "core": "Exp",
     "origin": "Derived",
     "srcData": "ex_raw",
     "srcVar": "EXSTDTC",
     "rule": "min(EXSTDTC) per subject = first dose date",
     "ct": "",
     "notes": "DEFINES STUDY DAY 1 for the whole study"
    },
    {
     "name": "RFENDTC",
     "label": "Subject Reference End Date/Time",
     "type": "Char",
     "core": "Exp",
     "origin": "Derived",
     "srcData": "ex_raw",
     "srcVar": "EXENDTC",
     "rule": "max(EXENDTC) per subject = last dose date",
     "ct": "",
     "notes": ""
    },
    {
     "name": "RFXSTDTC",
     "label": "Date/Time of First Study Treatment",
     "type": "Char",
     "core": "Exp",
     "origin": "Derived",
     "srcData": "ex_raw",
     "srcVar": "EXSTDTC",
     "rule": "Same as RFSTDTC",
     "ct": "",
     "notes": ""
    },
    {
     "name": "RFXENDTC",
     "label": "Date/Time of Last Study Treatment",
     "type": "Char",
     "core": "Exp",
     "origin": "Derived",
     "srcData": "ex_raw",
     "srcVar": "EXENDTC",
     "rule": "Same as RFENDTC",
     "ct": "",
     "notes": ""
    },
    {
     "name": "RFICDTC",
     "label": "Date/Time of Informed Consent",
     "type": "Char",
     "core": "Exp",
     "origin": "Collected",
     "srcData": "dm_raw",
     "srcVar": "RFICDTC",
     "rule": "Convert to ISO 8601",
     "ct": "",
     "notes": "Reference date for AGE; also a DS protocol milestone"
    },
    {
     "name": "RFPENDTC",
     "label": "Date/Time of End of Participation",
     "type": "Char",
     "core": "Exp",
     "origin": "Collected",
     "srcData": "ds_raw",
     "srcVar": "EOSDT",
     "rule": "Convert to ISO 8601",
     "ct": "",
     "notes": "From the DISPOSITION form \u2014 NOT demographics"
    },
    {
     "name": "DTHDTC",
     "label": "Date/Time of Death",
     "type": "Char",
     "core": "Exp",
     "origin": "Collected",
     "srcData": "",
     "srcVar": "",
     "rule": "Null \u2014 no deaths in this study",
     "ct": "",
     "notes": ""
    },
    {
     "name": "DTHFL",
     "label": "Subject Death Flag",
     "type": "Char",
     "core": "Exp",
     "origin": "Derived",
     "srcData": "",
     "srcVar": "",
     "rule": "Null \u2014 no deaths in this study",
     "ct": "NY",
     "notes": ""
    },
    {
     "name": "SITEID",
     "label": "Study Site Identifier",
     "type": "Char",
     "core": "Req",
     "origin": "Collected",
     "srcData": "dm_raw",
     "srcVar": "SITEID",
     "rule": "As collected",
     "ct": "",
     "notes": "Character \u2014 preserve leading zero"
    },
    {
     "name": "AGE",
     "label": "Age",
     "type": "Num",
     "core": "Exp",
     "origin": "Derived",
     "srcData": "dm_raw",
     "srcVar": "BRTHDTC, RFICDTC",
     "rule": "Completed years from BRTHDTC to RFICDTC",
     "ct": "",
     "notes": "Edge case: born 1969-05-14, consent 2024-02-20 -> 54 not 55"
    },
    {
     "name": "AGEU",
     "label": "Age Units",
     "type": "Char",
     "core": "Exp",
     "origin": "Assigned",
     "srcData": "",
     "srcVar": "",
     "rule": "Literal \"YEARS\"",
     "ct": "AGEU",
     "notes": ""
    },
    {
     "name": "SEX",
     "label": "Sex",
     "type": "Char",
     "core": "Req",
     "origin": "Collected",
     "srcData": "dm_raw",
     "srcVar": "SEX",
     "rule": "CT lookup: 1 -> M, 2 -> F",
     "ct": "SEX",
     "notes": "EDC stores a numeric code"
    },
    {
     "name": "RACE",
     "label": "Race",
     "type": "Char",
     "core": "Exp",
     "origin": "Collected",
     "srcData": "dm_raw",
     "srcVar": "RACE",
     "rule": "Trim + upper-case, then map to CT",
     "ct": "RACE",
     "notes": "Raw is mixed case with a trailing space"
    },
    {
     "name": "ETHNIC",
     "label": "Ethnicity",
     "type": "Char",
     "core": "Perm",
     "origin": "Collected",
     "srcData": "dm_raw",
     "srcVar": "ETHNIC",
     "rule": "Upper-case, then map to CT",
     "ct": "ETHNIC",
     "notes": ""
    },
    {
     "name": "ARMCD",
     "label": "Planned Arm Code",
     "type": "Char",
     "core": "Req",
     "origin": "Derived",
     "srcData": "dm_raw",
     "srcVar": "ARM",
     "rule": "Drug A -> A ; Placebo -> P",
     "ct": "",
     "notes": "Max 20 chars, no spaces"
    },
    {
     "name": "ARM",
     "label": "Description of Planned Arm",
     "type": "Char",
     "core": "Req",
     "origin": "Collected",
     "srcData": "dm_raw",
     "srcVar": "ARM",
     "rule": "As collected",
     "ct": "",
     "notes": ""
    },
    {
     "name": "ACTARMCD",
     "label": "Actual Arm Code",
     "type": "Char",
     "core": "Req",
     "origin": "Derived",
     "srcData": "dm_raw",
     "srcVar": "ARM",
     "rule": "Same as ARMCD",
     "ct": "",
     "notes": "As-treated = as-planned in this study"
    },
    {
     "name": "ACTARM",
     "label": "Description of Actual Arm",
     "type": "Char",
     "core": "Req",
     "origin": "Derived",
     "srcData": "dm_raw",
     "srcVar": "ARM",
     "rule": "Same as ARM",
     "ct": "",
     "notes": "Would differ if a subject were mis-dosed"
    },
    {
     "name": "COUNTRY",
     "label": "Country",
     "type": "Char",
     "core": "Req",
     "origin": "Collected",
     "srcData": "dm_raw",
     "srcVar": "COUNTRY",
     "rule": "As collected",
     "ct": "COUNTRY",
     "notes": "Already ISO 3166-1 alpha-3"
    }
   ],
   "example": {
    "usubjid": "ABC-01-01-002",
    "raw": {
     "STUDYID": "ABC-01",
     "SITEID": "01",
     "SUBJID": "002",
     "BRTHDTC": "02-NOV-1963",
     "SEX": "1",
     "RACE": "Asian",
     "ETHNIC": "Not Hispanic or Latino",
     "COUNTRY": "JPN",
     "ARM": "Placebo",
     "RFICDTC": "22-FEB-2024",
     "RANDDTC": "04-MAR-2024"
    },
    "sdtm": {
     "STUDYID": "ABC-01",
     "DOMAIN": "DM",
     "USUBJID": "ABC-01-01-002",
     "SUBJID": "002",
     "RFSTDTC": "2024-03-04",
     "RFENDTC": "2024-03-31",
     "RFXSTDTC": "2024-03-04",
     "RFXENDTC": "2024-03-31",
     "RFICDTC": "2024-02-22",
     "RFPENDTC": "2024-03-31",
     "DTHDTC": "",
     "DTHFL": "",
     "SITEID": "01",
     "AGE": "60",
     "AGEU": "YEARS",
     "SEX": "M",
     "RACE": "ASIAN",
     "ETHNIC": "NOT HISPANIC OR LATINO",
     "ARMCD": "P",
     "ARM": "Placebo",
     "ACTARMCD": "P",
     "ACTARM": "Placebo",
     "COUNTRY": "JPN"
    }
   }
  },
  {
   "name": "AE",
   "class": "Events",
   "structure": "One record per adverse event per subject",
   "variables": [
    {
     "name": "STUDYID",
     "label": "Study Identifier",
     "type": "Char",
     "core": "Req",
     "origin": "Assigned",
     "srcData": "ae_raw",
     "srcVar": "STUDYID",
     "rule": "Constant \"ABC-01\"",
     "ct": "",
     "notes": ""
    },
    {
     "name": "DOMAIN",
     "label": "Domain Abbreviation",
     "type": "Char",
     "core": "Req",
     "origin": "Assigned",
     "srcData": "",
     "srcVar": "",
     "rule": "Literal \"AE\"",
     "ct": "",
     "notes": ""
    },
    {
     "name": "USUBJID",
     "label": "Unique Subject Identifier",
     "type": "Char",
     "core": "Req",
     "origin": "Derived",
     "srcData": "ae_raw",
     "srcVar": "SITEID, SUBJID",
     "rule": "See Global Rules",
     "ct": "",
     "notes": ""
    },
    {
     "name": "AESEQ",
     "label": "Sequence Number",
     "type": "Num",
     "core": "Req",
     "origin": "Derived",
     "srcData": "",
     "srcVar": "",
     "rule": "Sequential per subject, ordered by AESTDTC then AETERM",
     "ct": "",
     "notes": "See Global Rules"
    },
    {
     "name": "AETERM",
     "label": "Reported Term for the Adverse Event",
     "type": "Char",
     "core": "Req",
     "origin": "Collected",
     "srcData": "ae_raw",
     "srcVar": "AETERM",
     "rule": "VERBATIM, exactly as reported \u2014 never cleaned",
     "ct": "",
     "notes": "Topic variable"
    },
    {
     "name": "AEDECOD",
     "label": "Dictionary-Derived Term",
     "type": "Char",
     "core": "Req",
     "origin": "Derived",
     "srcData": "ae_raw",
     "srcVar": "AETERM",
     "rule": "Dictionary preferred term",
     "ct": "",
     "notes": "ILLUSTRATIVE \u2014 real coding needs licensed MedDRA"
    },
    {
     "name": "AESEV",
     "label": "Severity/Intensity",
     "type": "Char",
     "core": "Perm",
     "origin": "Collected",
     "srcData": "ae_raw",
     "srcVar": "AESEV",
     "rule": "Upper-case -> CT",
     "ct": "AESEV",
     "notes": "MILD / MODERATE / SEVERE"
    },
    {
     "name": "AESER",
     "label": "Serious Event",
     "type": "Char",
     "core": "Exp",
     "origin": "Collected",
     "srcData": "ae_raw",
     "srcVar": "AESER",
     "rule": "No/N -> N ; Yes -> Y",
     "ct": "NY",
     "notes": "Both 'No' and 'N' appear in raw"
    },
    {
     "name": "AEREL",
     "label": "Causality",
     "type": "Char",
     "core": "Exp",
     "origin": "Collected",
     "srcData": "ae_raw",
     "srcVar": "AEREL",
     "rule": "Upper-case source text",
     "ct": "",
     "notes": "Codelist commonly SPONSOR-DEFINED"
    },
    {
     "name": "AEOUT",
     "label": "Outcome of Adverse Event",
     "type": "Char",
     "core": "Perm",
     "origin": "Collected",
     "srcData": "ae_raw",
     "srcVar": "AEOUT",
     "rule": "Decode numeric code 1-5 to its CT term",
     "ct": "OUT",
     "notes": "Raw is a CRF dropdown CODE, not text \u2014 never pass the number through"
    },
    {
     "name": "AESTDTC",
     "label": "Start Date/Time of Adverse Event",
     "type": "Char",
     "core": "Exp",
     "origin": "Collected",
     "srcData": "ae_raw",
     "srcVar": "AESTDT",
     "rule": "Convert mixed formats to ISO 8601",
     "ct": "",
     "notes": "Two formats present"
    },
    {
     "name": "AEENDTC",
     "label": "End Date/Time of Adverse Event",
     "type": "Char",
     "core": "Perm",
     "origin": "Collected",
     "srcData": "ae_raw",
     "srcVar": "AEENDT",
     "rule": "Convert to ISO 8601",
     "ct": "",
     "notes": "BLANK = ONGOING \u2014 leave null"
    },
    {
     "name": "AESTDY",
     "label": "Study Day of Start of Event",
     "type": "Num",
     "core": "Perm",
     "origin": "Derived",
     "srcData": "",
     "srcVar": "",
     "rule": "See Global Rules (--DY)",
     "ct": "",
     "notes": ""
    },
    {
     "name": "AEENDY",
     "label": "Study Day of End of Event",
     "type": "Num",
     "core": "Perm",
     "origin": "Derived",
     "srcData": "",
     "srcVar": "",
     "rule": "See Global Rules (--DY)",
     "ct": "",
     "notes": "Null when the event is ongoing"
    }
   ],
   "example": {
    "usubjid": "ABC-01-01-002",
    "raw": {
     "STUDYID": "ABC-01",
     "SITEID": "01",
     "SUBJID": "002",
     "AETERM": "sore throat",
     "AESTDT": "28-Feb-2024",
     "AEENDT": "02-Mar-2024",
     "AESEV": "Mild",
     "AESER": "No",
     "AEREL": "Not related",
     "AEOUT": "1"
    },
    "sdtm": {
     "STUDYID": "ABC-01",
     "DOMAIN": "AE",
     "USUBJID": "ABC-01-01-002",
     "AESEQ": "1",
     "AETERM": "sore throat",
     "AEDECOD": "Oropharyngeal pain",
     "AESEV": "MILD",
     "AESER": "N",
     "AEREL": "NOT RELATED",
     "AEOUT": "RECOVERED/RESOLVED",
     "AESTDTC": "2024-02-28",
     "AEENDTC": "2024-03-02",
     "AESTDY": "-5",
     "AEENDY": "-2"
    }
   }
  },
  {
   "name": "SUPPAE",
   "class": "Relationship",
   "structure": "One record per supplemental qualifier",
   "variables": [
    {
     "name": "STUDYID",
     "label": "Study Identifier",
     "type": "Char",
     "core": "Req",
     "origin": "Assigned",
     "srcData": "",
     "srcVar": "",
     "rule": "Constant \"ABC-01\"",
     "ct": "",
     "notes": ""
    },
    {
     "name": "RDOMAIN",
     "label": "Related Domain Abbreviation",
     "type": "Char",
     "core": "Req",
     "origin": "Assigned",
     "srcData": "",
     "srcVar": "",
     "rule": "Literal \"AE\" \u2014 the domain this qualifies",
     "ct": "",
     "notes": ""
    },
    {
     "name": "USUBJID",
     "label": "Unique Subject Identifier",
     "type": "Char",
     "core": "Req",
     "origin": "Derived",
     "srcData": "sdtm/ae.csv",
     "srcVar": "USUBJID",
     "rule": "Copied from the parent AE record",
     "ct": "",
     "notes": ""
    },
    {
     "name": "IDVAR",
     "label": "Identifying Variable",
     "type": "Char",
     "core": "Exp",
     "origin": "Assigned",
     "srcData": "",
     "srcVar": "",
     "rule": "Literal \"AESEQ\" \u2014 how we point at the parent row",
     "ct": "",
     "notes": ""
    },
    {
     "name": "IDVARVAL",
     "label": "Identifying Variable Value",
     "type": "Char",
     "core": "Exp",
     "origin": "Derived",
     "srcData": "sdtm/ae.csv",
     "srcVar": "AESEQ",
     "rule": "The parent record's AESEQ value",
     "ct": "",
     "notes": ""
    },
    {
     "name": "QNAM",
     "label": "Qualifier Variable Name",
     "type": "Char",
     "core": "Req",
     "origin": "Assigned",
     "srcData": "",
     "srcVar": "",
     "rule": "Literal \"AETRTEM\"",
     "ct": "",
     "notes": "Must NOT duplicate an existing AE variable"
    },
    {
     "name": "QLABEL",
     "label": "Qualifier Variable Label",
     "type": "Char",
     "core": "Exp",
     "origin": "Assigned",
     "srcData": "",
     "srcVar": "",
     "rule": "Literal \"Treatment Emergent Flag\"",
     "ct": "",
     "notes": ""
    },
    {
     "name": "QVAL",
     "label": "Data Value",
     "type": "Char",
     "core": "Req",
     "origin": "Derived",
     "srcData": "sdtm/ae.csv",
     "srcVar": "AESTDY",
     "rule": "Y if AESTDY >= 1 (on/after first dose), else N",
     "ct": "NY",
     "notes": "All Y in ABC-01 \u2014 see the spec caveat"
    },
    {
     "name": "QORIG",
     "label": "Origin",
     "type": "Char",
     "core": "Exp",
     "origin": "Assigned",
     "srcData": "",
     "srcVar": "",
     "rule": "Literal \"DERIVED\"",
     "ct": "",
     "notes": ""
    },
    {
     "name": "QEVAL",
     "label": "Evaluator",
     "type": "Char",
     "core": "Perm",
     "origin": "Assigned",
     "srcData": "",
     "srcVar": "",
     "rule": "Blank \u2014 derived, not assessed by a person",
     "ct": "",
     "notes": ""
    }
   ],
   "example": {
    "usubjid": "ABC-01-01-002",
    "raw": {
     "STUDYID": "ABC-01",
     "SITEID": "01",
     "SUBJID": "002",
     "AETERM": "sore throat",
     "AESTDT": "28-Feb-2024",
     "AEENDT": "02-Mar-2024",
     "AESEV": "Mild",
     "AESER": "No",
     "AEREL": "Not related",
     "AEOUT": "1"
    },
    "sdtm": {
     "STUDYID": "ABC-01",
     "RDOMAIN": "AE",
     "USUBJID": "ABC-01-01-002",
     "IDVAR": "AESEQ",
     "IDVARVAL": "1",
     "QNAM": "AETRTEM",
     "QLABEL": "Treatment Emergent Flag",
     "QVAL": "N",
     "QORIG": "DERIVED",
     "QEVAL": ""
    }
   }
  },
  {
   "name": "VS",
   "class": "Findings",
   "structure": "One record per test per visit per subject",
   "variables": [
    {
     "name": "STUDYID",
     "label": "Study Identifier",
     "type": "Char",
     "core": "Req",
     "origin": "Assigned",
     "srcData": "vs_raw",
     "srcVar": "STUDYID",
     "rule": "Constant \"ABC-01\"",
     "ct": "",
     "notes": ""
    },
    {
     "name": "DOMAIN",
     "label": "Domain Abbreviation",
     "type": "Char",
     "core": "Req",
     "origin": "Assigned",
     "srcData": "",
     "srcVar": "",
     "rule": "Literal \"VS\"",
     "ct": "",
     "notes": ""
    },
    {
     "name": "USUBJID",
     "label": "Unique Subject Identifier",
     "type": "Char",
     "core": "Req",
     "origin": "Derived",
     "srcData": "vs_raw",
     "srcVar": "SITEID, SUBJID",
     "rule": "See Global Rules",
     "ct": "",
     "notes": ""
    },
    {
     "name": "VSSEQ",
     "label": "Sequence Number",
     "type": "Num",
     "core": "Req",
     "origin": "Derived",
     "srcData": "",
     "srcVar": "",
     "rule": "Sequential per subject, ordered by visit then test",
     "ct": "",
     "notes": "See Global Rules"
    },
    {
     "name": "VSTESTCD",
     "label": "Vital Signs Test Short Name",
     "type": "Char",
     "core": "Req",
     "origin": "Derived",
     "srcData": "vs_raw",
     "srcVar": "column name",
     "rule": "Column name -> CT code (SYSBP, DIABP, PULSE, TEMP, HEIGHT, WEIGHT)",
     "ct": "VSTESTCD",
     "notes": "Topic variable \u2014 comes from the COLUMN NAME"
    },
    {
     "name": "VSTEST",
     "label": "Vital Signs Test Name",
     "type": "Char",
     "core": "Req",
     "origin": "Derived",
     "srcData": "vs_raw",
     "srcVar": "column name",
     "rule": "Long name from CT",
     "ct": "VSTEST",
     "notes": ""
    },
    {
     "name": "VSORRES",
     "label": "Result or Finding in Original Units",
     "type": "Char",
     "core": "Exp",
     "origin": "Collected",
     "srcData": "vs_raw",
     "srcVar": "cell value",
     "rule": "Result AS COLLECTED (character)",
     "ct": "",
     "notes": ""
    },
    {
     "name": "VSORRESU",
     "label": "Original Units",
     "type": "Char",
     "core": "Exp",
     "origin": "Protocol",
     "srcData": "",
     "srcVar": "",
     "rule": "mmHg / beats/min / C / cm / kg",
     "ct": "UNIT",
     "notes": "Per test \u2014 from the protocol"
    },
    {
     "name": "VSSTRESC",
     "label": "Character Result in Std Format",
     "type": "Char",
     "core": "Exp",
     "origin": "Derived",
     "srcData": "",
     "srcVar": "",
     "rule": "Same as VSORRES",
     "ct": "",
     "notes": "No conversion needed in this study"
    },
    {
     "name": "VSSTRESN",
     "label": "Numeric Result in Std Units",
     "type": "Num",
     "core": "Exp",
     "origin": "Derived",
     "srcData": "",
     "srcVar": "",
     "rule": "VSORRES as numeric",
     "ct": "",
     "notes": ""
    },
    {
     "name": "VSSTRESU",
     "label": "Standard Units",
     "type": "Char",
     "core": "Exp",
     "origin": "Derived",
     "srcData": "",
     "srcVar": "",
     "rule": "Same as VSORRESU",
     "ct": "UNIT",
     "notes": "Collected units already standard"
    },
    {
     "name": "VSBLFL",
     "label": "Baseline Flag",
     "type": "Char",
     "core": "Perm",
     "origin": "Derived",
     "srcData": "vs_raw",
     "srcVar": "VISIT",
     "rule": "\"Y\" at the BASELINE visit",
     "ct": "NY",
     "notes": "Last assessment on/before first dose"
    },
    {
     "name": "VISITNUM",
     "label": "Visit Number",
     "type": "Num",
     "core": "Exp",
     "origin": "Derived",
     "srcData": "vs_raw",
     "srcVar": "VISIT",
     "rule": "SCREENING=1, BASELINE=2, WEEK 4=4",
     "ct": "",
     "notes": ""
    },
    {
     "name": "VISIT",
     "label": "Visit Name",
     "type": "Char",
     "core": "Perm",
     "origin": "Collected",
     "srcData": "vs_raw",
     "srcVar": "VISIT",
     "rule": "As collected",
     "ct": "",
     "notes": ""
    },
    {
     "name": "VSDTC",
     "label": "Date/Time of Measurements",
     "type": "Char",
     "core": "Exp",
     "origin": "Collected",
     "srcData": "vs_raw",
     "srcVar": "VSDT",
     "rule": "Convert to ISO 8601",
     "ct": "",
     "notes": ""
    },
    {
     "name": "VSDY",
     "label": "Study Day of Measurements",
     "type": "Num",
     "core": "Perm",
     "origin": "Derived",
     "srcData": "",
     "srcVar": "",
     "rule": "See Global Rules (--DY)",
     "ct": "",
     "notes": "Negative at SCREENING"
    }
   ],
   "example": {
    "usubjid": "ABC-01-01-002",
    "raw": {
     "STUDYID": "ABC-01",
     "SITEID": "01",
     "SUBJID": "002",
     "VISIT": "WEEK 4",
     "VSDT": "01-APR-2024",
     "SYSBP": "130",
     "DIABP": "82",
     "PULSE": "74",
     "TEMP": "36.7",
     "HEIGHT": "",
     "WEIGHT": "81.0",
     "VSND": "N"
    },
    "sdtm": {
     "STUDYID": "ABC-01",
     "DOMAIN": "VS",
     "USUBJID": "ABC-01-01-002",
     "VSSEQ": "12",
     "VSTESTCD": "SYSBP",
     "VSTEST": "Systolic Blood Pressure",
     "VSORRES": "130",
     "VSORRESU": "mmHg",
     "VSSTRESC": "130",
     "VSSTRESN": "130",
     "VSSTRESU": "mmHg",
     "VSBLFL": "",
     "VISITNUM": "4",
     "VISIT": "WEEK 4",
     "VSDTC": "2024-04-01",
     "VSDY": "29"
    }
   }
  },
  {
   "name": "LB",
   "class": "Findings",
   "structure": "One record per test per visit per subject",
   "variables": [
    {
     "name": "STUDYID",
     "label": "Study Identifier",
     "type": "Char",
     "core": "Req",
     "origin": "Assigned",
     "srcData": "lb_raw",
     "srcVar": "STUDYID",
     "rule": "Constant \"ABC-01\"",
     "ct": "",
     "notes": ""
    },
    {
     "name": "DOMAIN",
     "label": "Domain Abbreviation",
     "type": "Char",
     "core": "Req",
     "origin": "Assigned",
     "srcData": "",
     "srcVar": "",
     "rule": "Literal \"LB\"",
     "ct": "",
     "notes": ""
    },
    {
     "name": "USUBJID",
     "label": "Unique Subject Identifier",
     "type": "Char",
     "core": "Req",
     "origin": "Derived",
     "srcData": "lb_raw",
     "srcVar": "SITEID, SUBJID",
     "rule": "See Global Rules",
     "ct": "",
     "notes": ""
    },
    {
     "name": "LBSEQ",
     "label": "Sequence Number",
     "type": "Num",
     "core": "Req",
     "origin": "Derived",
     "srcData": "",
     "srcVar": "",
     "rule": "Sequential per subject, ordered by visit then test",
     "ct": "",
     "notes": "See Global Rules"
    },
    {
     "name": "LBTESTCD",
     "label": "Lab Test or Examination Short Name",
     "type": "Char",
     "core": "Req",
     "origin": "Derived",
     "srcData": "lb_raw",
     "srcVar": "LBTEST",
     "rule": "Map test name -> CT code",
     "ct": "LBTESTCD",
     "notes": "Topic variable"
    },
    {
     "name": "LBTEST",
     "label": "Lab Test or Examination Name",
     "type": "Char",
     "core": "Req",
     "origin": "Derived",
     "srcData": "lb_raw",
     "srcVar": "LBTEST",
     "rule": "CT long name",
     "ct": "LBTEST",
     "notes": "\"White Blood Cells\" -> \"Leukocytes\""
    },
    {
     "name": "LBCAT",
     "label": "Category for Lab Test",
     "type": "Char",
     "core": "Perm",
     "origin": "Derived",
     "srcData": "lb_raw",
     "srcVar": "LBTEST",
     "rule": "HEMATOLOGY or CHEMISTRY",
     "ct": "",
     "notes": ""
    },
    {
     "name": "LBORRES",
     "label": "Result or Finding in Original Units",
     "type": "Char",
     "core": "Exp",
     "origin": "Collected",
     "srcData": "lb_raw",
     "srcVar": "LBORRES",
     "rule": "As collected",
     "ct": "",
     "notes": ""
    },
    {
     "name": "LBORRESU",
     "label": "Original Units",
     "type": "Char",
     "core": "Exp",
     "origin": "Collected",
     "srcData": "lb_raw",
     "srcVar": "LBORRESU",
     "rule": "As collected",
     "ct": "UNIT",
     "notes": ""
    },
    {
     "name": "LBORNRLO",
     "label": "Reference Range Lower Limit (orig)",
     "type": "Char",
     "core": "Perm",
     "origin": "Collected",
     "srcData": "lb_raw",
     "srcVar": "LBORNRLO",
     "rule": "As collected",
     "ct": "",
     "notes": ""
    },
    {
     "name": "LBORNRHI",
     "label": "Reference Range Upper Limit (orig)",
     "type": "Char",
     "core": "Perm",
     "origin": "Collected",
     "srcData": "lb_raw",
     "srcVar": "LBORNRHI",
     "rule": "As collected",
     "ct": "",
     "notes": ""
    },
    {
     "name": "LBSTRESC",
     "label": "Character Result in Std Format",
     "type": "Char",
     "core": "Exp",
     "origin": "Derived",
     "srcData": "",
     "srcVar": "",
     "rule": "Same as LBORRES",
     "ct": "",
     "notes": ""
    },
    {
     "name": "LBSTRESN",
     "label": "Numeric Result in Std Units",
     "type": "Num",
     "core": "Exp",
     "origin": "Derived",
     "srcData": "",
     "srcVar": "",
     "rule": "LBORRES as numeric",
     "ct": "",
     "notes": ""
    },
    {
     "name": "LBSTRESU",
     "label": "Standard Units",
     "type": "Char",
     "core": "Exp",
     "origin": "Derived",
     "srcData": "",
     "srcVar": "",
     "rule": "Same as LBORRESU",
     "ct": "UNIT",
     "notes": "NO CONVERSION in this study \u2014 see Cover caveats"
    },
    {
     "name": "LBSTNRLO",
     "label": "Reference Range Lower Limit (std)",
     "type": "Num",
     "core": "Perm",
     "origin": "Derived",
     "srcData": "",
     "srcVar": "",
     "rule": "Same as LBORNRLO",
     "ct": "",
     "notes": ""
    },
    {
     "name": "LBSTNRHI",
     "label": "Reference Range Upper Limit (std)",
     "type": "Num",
     "core": "Perm",
     "origin": "Derived",
     "srcData": "",
     "srcVar": "",
     "rule": "Same as LBORNRHI",
     "ct": "",
     "notes": ""
    },
    {
     "name": "LBNRIND",
     "label": "Reference Range Indicator",
     "type": "Char",
     "core": "Perm",
     "origin": "Derived",
     "srcData": "",
     "srcVar": "",
     "rule": "LOW if result < low ; HIGH if > high ; else NORMAL",
     "ct": "NRIND",
     "notes": "1 HIGH in this study (ALT 72 U/L, subject 01-003 Week 4)"
    },
    {
     "name": "LBBLFL",
     "label": "Baseline Flag",
     "type": "Char",
     "core": "Perm",
     "origin": "Derived",
     "srcData": "lb_raw",
     "srcVar": "VISIT",
     "rule": "\"Y\" at the BASELINE visit",
     "ct": "NY",
     "notes": ""
    },
    {
     "name": "VISITNUM",
     "label": "Visit Number",
     "type": "Num",
     "core": "Exp",
     "origin": "Derived",
     "srcData": "lb_raw",
     "srcVar": "VISIT",
     "rule": "BASELINE=2, WEEK 4=4",
     "ct": "",
     "notes": ""
    },
    {
     "name": "VISIT",
     "label": "Visit Name",
     "type": "Char",
     "core": "Perm",
     "origin": "Collected",
     "srcData": "lb_raw",
     "srcVar": "VISIT",
     "rule": "As collected",
     "ct": "",
     "notes": ""
    },
    {
     "name": "LBDTC",
     "label": "Date/Time of Specimen Collection",
     "type": "Char",
     "core": "Exp",
     "origin": "Collected",
     "srcData": "lb_raw",
     "srcVar": "LBDT",
     "rule": "Convert to ISO 8601",
     "ct": "",
     "notes": ""
    },
    {
     "name": "LBDY",
     "label": "Study Day of Specimen Collection",
     "type": "Num",
     "core": "Perm",
     "origin": "Derived",
     "srcData": "",
     "srcVar": "",
     "rule": "See Global Rules (--DY)",
     "ct": "",
     "notes": ""
    }
   ],
   "example": {
    "usubjid": "ABC-01-01-002",
    "raw": {
     "STUDYID": "ABC-01",
     "SITEID": "01",
     "SUBJID": "002",
     "VISIT": "BASELINE",
     "LBDT": "04-MAR-2024",
     "LBTEST": "Hemoglobin",
     "LBORRES": "15.1",
     "LBORRESU": "g/dL",
     "LBORNRLO": "12.0",
     "LBORNRHI": "17.0"
    },
    "sdtm": {
     "STUDYID": "ABC-01",
     "DOMAIN": "LB",
     "USUBJID": "ABC-01-01-002",
     "LBSEQ": "1",
     "LBTESTCD": "HGB",
     "LBTEST": "Hemoglobin",
     "LBCAT": "HEMATOLOGY",
     "LBORRES": "15.1",
     "LBORRESU": "g/dL",
     "LBORNRLO": "12.0",
     "LBORNRHI": "17.0",
     "LBSTRESC": "15.1",
     "LBSTRESN": "15.1",
     "LBSTRESU": "g/dL",
     "LBSTNRLO": "12.0",
     "LBSTNRHI": "17.0",
     "LBNRIND": "NORMAL",
     "LBBLFL": "Y",
     "VISITNUM": "2",
     "VISIT": "BASELINE",
     "LBDTC": "2024-03-04",
     "LBDY": "1"
    }
   }
  },
  {
   "name": "EX",
   "class": "Interventions",
   "structure": "One record per dosing period per subject",
   "variables": [
    {
     "name": "STUDYID",
     "label": "Study Identifier",
     "type": "Char",
     "core": "Req",
     "origin": "Assigned",
     "srcData": "ex_raw",
     "srcVar": "STUDYID",
     "rule": "Constant \"ABC-01\"",
     "ct": "",
     "notes": ""
    },
    {
     "name": "DOMAIN",
     "label": "Domain Abbreviation",
     "type": "Char",
     "core": "Req",
     "origin": "Assigned",
     "srcData": "",
     "srcVar": "",
     "rule": "Literal \"EX\"",
     "ct": "",
     "notes": ""
    },
    {
     "name": "USUBJID",
     "label": "Unique Subject Identifier",
     "type": "Char",
     "core": "Req",
     "origin": "Derived",
     "srcData": "ex_raw",
     "srcVar": "SITEID, SUBJID",
     "rule": "See Global Rules",
     "ct": "",
     "notes": ""
    },
    {
     "name": "EXSEQ",
     "label": "Sequence Number",
     "type": "Num",
     "core": "Req",
     "origin": "Derived",
     "srcData": "",
     "srcVar": "",
     "rule": "1 \u2014 single dosing period per subject",
     "ct": "",
     "notes": "See Global Rules"
    },
    {
     "name": "EXTRT",
     "label": "Name of Treatment",
     "type": "Char",
     "core": "Req",
     "origin": "Collected",
     "srcData": "ex_raw",
     "srcVar": "EXTRT",
     "rule": "As collected (Drug A / Placebo)",
     "ct": "",
     "notes": "Topic variable"
    },
    {
     "name": "EXDOSE",
     "label": "Dose per Administration",
     "type": "Num",
     "core": "Exp",
     "origin": "Collected",
     "srcData": "ex_raw",
     "srcVar": "EXDOSE",
     "rule": "As collected (50, or 0 for placebo)",
     "ct": "",
     "notes": ""
    },
    {
     "name": "EXDOSU",
     "label": "Dose Units",
     "type": "Char",
     "core": "Exp",
     "origin": "Collected",
     "srcData": "ex_raw",
     "srcVar": "EXDOSU",
     "rule": "\"mg\"",
     "ct": "UNIT",
     "notes": ""
    },
    {
     "name": "EXDOSFRQ",
     "label": "Dosing Frequency per Interval",
     "type": "Char",
     "core": "Perm",
     "origin": "Collected",
     "srcData": "ex_raw",
     "srcVar": "EXFREQ",
     "rule": "As collected (QD)",
     "ct": "FREQ",
     "notes": "NOTE THE RENAME: raw EXFREQ -> SDTM EXDOSFRQ"
    },
    {
     "name": "EXROUTE",
     "label": "Route of Administration",
     "type": "Char",
     "core": "Perm",
     "origin": "Collected",
     "srcData": "ex_raw",
     "srcVar": "EXROUTE",
     "rule": "\"ORAL\"",
     "ct": "ROUTE",
     "notes": ""
    },
    {
     "name": "EXSTDTC",
     "label": "Start Date/Time of Treatment",
     "type": "Char",
     "core": "Exp",
     "origin": "Collected",
     "srcData": "ex_raw",
     "srcVar": "EXSTDTC",
     "rule": "Convert to ISO 8601",
     "ct": "",
     "notes": ""
    },
    {
     "name": "EXENDTC",
     "label": "End Date/Time of Treatment",
     "type": "Char",
     "core": "Perm",
     "origin": "Collected",
     "srcData": "ex_raw",
     "srcVar": "EXENDTC",
     "rule": "Convert to ISO 8601",
     "ct": "",
     "notes": ""
    },
    {
     "name": "EXSTDY",
     "label": "Study Day of Start of Treatment",
     "type": "Num",
     "core": "Perm",
     "origin": "Derived",
     "srcData": "",
     "srcVar": "",
     "rule": "See Global Rules (--DY)",
     "ct": "",
     "notes": "Always 1 \u2014 useful self-check"
    },
    {
     "name": "EXENDY",
     "label": "Study Day of End of Treatment",
     "type": "Num",
     "core": "Perm",
     "origin": "Derived",
     "srcData": "",
     "srcVar": "",
     "rule": "See Global Rules (--DY)",
     "ct": "",
     "notes": ""
    },
    {
     "name": "(EOSOTH)",
     "label": "'If Other, specify' \u2014 NOT an SDTM variable",
     "type": "Char",
     "core": "n/a",
     "origin": "Collected",
     "srcData": "ds_raw",
     "srcVar": "EOSOTH",
     "rule": "Not submitted. Feeds the verbatim DSTERM when the reason is Other",
     "ct": "",
     "notes": "Blank for all subjects here"
    },
    {
     "name": "(VSND)",
     "label": "Assessments not performed? \u2014 NOT an SDTM variable",
     "type": "Char",
     "core": "n/a",
     "origin": "Collected",
     "srcData": "vs_raw",
     "srcVar": "VSND",
     "rule": "Not submitted. A Y would drive VSSTAT=NOT DONE and VSREASND",
     "ct": "",
     "notes": "N for all records here"
    },
    {
     "name": "(EXINTP)",
     "label": "Dosing interrupted? \u2014 NOT an SDTM variable",
     "type": "Char",
     "core": "n/a",
     "origin": "Collected",
     "srcData": "ex_raw",
     "srcVar": "EXINTP",
     "rule": "Not submitted. Y = split into one EX record per continuous dosing period (EXSEQ 1,2,3...)",
     "ct": "",
     "notes": "All N in this study, so 1 record per subject"
    }
   ],
   "example": {
    "usubjid": "ABC-01-01-002",
    "raw": {
     "STUDYID": "ABC-01",
     "SITEID": "01",
     "SUBJID": "002",
     "EXTRT": "Placebo",
     "EXDOSE": "0",
     "EXDOSU": "mg",
     "EXFREQ": "QD",
     "EXROUTE": "ORAL",
     "EXSTDTC": "04-MAR-2024",
     "EXENDTC": "31-MAR-2024",
     "EXINTP": "N"
    },
    "sdtm": {
     "STUDYID": "ABC-01",
     "DOMAIN": "EX",
     "USUBJID": "ABC-01-01-002",
     "EXSEQ": "1",
     "EXTRT": "Placebo",
     "EXDOSE": "0",
     "EXDOSU": "mg",
     "EXDOSFRQ": "QD",
     "EXROUTE": "ORAL",
     "EXSTDTC": "2024-03-04",
     "EXENDTC": "2024-03-31",
     "EXSTDY": "1",
     "EXENDY": "28"
    }
   }
  },
  {
   "name": "CM",
   "class": "Interventions",
   "structure": "One record per medication per subject",
   "variables": [
    {
     "name": "STUDYID",
     "label": "Study Identifier",
     "type": "Char",
     "core": "Req",
     "origin": "Assigned",
     "srcData": "cm_raw",
     "srcVar": "STUDYID",
     "rule": "Constant \"ABC-01\"",
     "ct": "",
     "notes": ""
    },
    {
     "name": "DOMAIN",
     "label": "Domain Abbreviation",
     "type": "Char",
     "core": "Req",
     "origin": "Assigned",
     "srcData": "",
     "srcVar": "",
     "rule": "Literal \"CM\"",
     "ct": "",
     "notes": ""
    },
    {
     "name": "USUBJID",
     "label": "Unique Subject Identifier",
     "type": "Char",
     "core": "Req",
     "origin": "Derived",
     "srcData": "cm_raw",
     "srcVar": "SITEID, SUBJID",
     "rule": "See Global Rules",
     "ct": "",
     "notes": ""
    },
    {
     "name": "CMSEQ",
     "label": "Sequence Number",
     "type": "Num",
     "core": "Req",
     "origin": "Derived",
     "srcData": "",
     "srcVar": "",
     "rule": "Sequential per subject, ordered by CMSTDTC then CMTRT",
     "ct": "",
     "notes": "See Global Rules"
    },
    {
     "name": "CMTRT",
     "label": "Reported Name of Drug, Med, or Therapy",
     "type": "Char",
     "core": "Req",
     "origin": "Collected",
     "srcData": "cm_raw",
     "srcVar": "CMTRT",
     "rule": "VERBATIM medication name",
     "ct": "",
     "notes": "Topic variable"
    },
    {
     "name": "CMDECOD",
     "label": "Standardized Medication Name",
     "type": "Char",
     "core": "Perm",
     "origin": "Derived",
     "srcData": "cm_raw",
     "srcVar": "CMTRT",
     "rule": "Dictionary term",
     "ct": "",
     "notes": "ILLUSTRATIVE \u2014 real coding needs licensed WHODrug"
    },
    {
     "name": "CMINDC",
     "label": "Indication",
     "type": "Char",
     "core": "Perm",
     "origin": "Collected",
     "srcData": "cm_raw",
     "srcVar": "CMINDC",
     "rule": "As collected",
     "ct": "",
     "notes": ""
    },
    {
     "name": "CMDOSE",
     "label": "Dose per Administration",
     "type": "Num",
     "core": "Perm",
     "origin": "Collected",
     "srcData": "cm_raw",
     "srcVar": "CMDOSE",
     "rule": "As collected",
     "ct": "",
     "notes": ""
    },
    {
     "name": "CMDOSU",
     "label": "Dose Units",
     "type": "Char",
     "core": "Perm",
     "origin": "Collected",
     "srcData": "cm_raw",
     "srcVar": "CMDOSU",
     "rule": "mg / IU / %",
     "ct": "UNIT",
     "notes": ""
    },
    {
     "name": "CMDOSFRQ",
     "label": "Dosing Frequency per Interval",
     "type": "Char",
     "core": "Perm",
     "origin": "Collected",
     "srcData": "cm_raw",
     "srcVar": "CMFREQ",
     "rule": "As collected (QD / BID / PRN)",
     "ct": "FREQ",
     "notes": "NOTE THE RENAME: raw CMFREQ -> SDTM CMDOSFRQ"
    },
    {
     "name": "CMROUTE",
     "label": "Route of Administration",
     "type": "Char",
     "core": "Perm",
     "origin": "Collected",
     "srcData": "cm_raw",
     "srcVar": "CMROUTE",
     "rule": "ORAL / TOPICAL",
     "ct": "ROUTE",
     "notes": ""
    },
    {
     "name": "CMSTDTC",
     "label": "Start Date/Time of Medication",
     "type": "Char",
     "core": "Exp",
     "origin": "Collected",
     "srcData": "cm_raw",
     "srcVar": "CMSTDT",
     "rule": "Convert mixed formats to ISO 8601",
     "ct": "",
     "notes": ""
    },
    {
     "name": "CMENDTC",
     "label": "End Date/Time of Medication",
     "type": "Char",
     "core": "Perm",
     "origin": "Collected",
     "srcData": "cm_raw",
     "srcVar": "CMENDT",
     "rule": "Convert to ISO 8601",
     "ct": "",
     "notes": "BLANK = ONGOING \u2014 leave null"
    },
    {
     "name": "CMSTDY",
     "label": "Study Day of Start of Medication",
     "type": "Num",
     "core": "Perm",
     "origin": "Derived",
     "srcData": "",
     "srcVar": "",
     "rule": "See Global Rules (--DY)",
     "ct": "",
     "notes": "NEGATIVE for meds started before first dose"
    },
    {
     "name": "CMENDY",
     "label": "Study Day of End of Medication",
     "type": "Num",
     "core": "Perm",
     "origin": "Derived",
     "srcData": "",
     "srcVar": "",
     "rule": "See Global Rules (--DY)",
     "ct": "",
     "notes": ""
    }
   ],
   "example": {
    "usubjid": "ABC-01-01-002",
    "raw": {
     "STUDYID": "ABC-01",
     "SITEID": "01",
     "SUBJID": "002",
     "CMTRT": "Lisinopril",
     "CMINDC": "hypertension",
     "CMSTDT": "01-Feb-2024",
     "CMENDT": "",
     "CMDOSE": "10",
     "CMDOSU": "mg",
     "CMROUTE": "ORAL",
     "CMFREQ": "QD"
    },
    "sdtm": {
     "STUDYID": "ABC-01",
     "DOMAIN": "CM",
     "USUBJID": "ABC-01-01-002",
     "CMSEQ": "1",
     "CMTRT": "Lisinopril",
     "CMDECOD": "LISINOPRIL",
     "CMINDC": "hypertension",
     "CMDOSE": "10",
     "CMDOSU": "mg",
     "CMDOSFRQ": "QD",
     "CMROUTE": "ORAL",
     "CMSTDTC": "2024-02-01",
     "CMENDTC": "",
     "CMSTDY": "-32",
     "CMENDY": ""
    }
   }
  },
  {
   "name": "DS",
   "class": "Events",
   "structure": "One record per disposition event per subject",
   "variables": [
    {
     "name": "STUDYID",
     "label": "Study Identifier",
     "type": "Char",
     "core": "Req",
     "origin": "Assigned",
     "srcData": "dm_raw",
     "srcVar": "STUDYID",
     "rule": "Constant \"ABC-01\"",
     "ct": "",
     "notes": ""
    },
    {
     "name": "DOMAIN",
     "label": "Domain Abbreviation",
     "type": "Char",
     "core": "Req",
     "origin": "Assigned",
     "srcData": "",
     "srcVar": "",
     "rule": "Literal \"DS\"",
     "ct": "",
     "notes": ""
    },
    {
     "name": "USUBJID",
     "label": "Unique Subject Identifier",
     "type": "Char",
     "core": "Req",
     "origin": "Derived",
     "srcData": "dm_raw",
     "srcVar": "SITEID, SUBJID",
     "rule": "See Global Rules",
     "ct": "",
     "notes": ""
    },
    {
     "name": "DSSEQ",
     "label": "Sequence Number",
     "type": "Num",
     "core": "Req",
     "origin": "Derived",
     "srcData": "",
     "srcVar": "",
     "rule": "Sequential per subject, ordered by DSSTDTC then DSCAT",
     "ct": "",
     "notes": "3 records per subject in this study"
    },
    {
     "name": "DSTERM",
     "label": "Reported Term for the Disposition Event",
     "type": "Char",
     "core": "Req",
     "origin": "Collected",
     "srcData": "ds_raw",
     "srcVar": "EOSSTAT, EOSREAS",
     "rule": "Descriptive term, e.g. \"Discontinued: Adverse event\"",
     "ct": "",
     "notes": "Topic variable"
    },
    {
     "name": "DSDECOD",
     "label": "Standardized Disposition Term",
     "type": "Char",
     "core": "Req",
     "origin": "Derived",
     "srcData": "ds_raw",
     "srcVar": "EOSSTAT, EOSREAS",
     "rule": "Map to CT \u2014 see Controlled Terminology sheet",
     "ct": "NCOMPLT / DSDECOD",
     "notes": ""
    },
    {
     "name": "DSCAT",
     "label": "Category for Disposition Event",
     "type": "Char",
     "core": "Perm",
     "origin": "Derived",
     "srcData": "",
     "srcVar": "",
     "rule": "\"PROTOCOL MILESTONE\" or \"DISPOSITION EVENT\"",
     "ct": "DSCAT",
     "notes": "Distinguishes milestones from the exit record"
    },
    {
     "name": "DSSTDTC",
     "label": "Start Date/Time of Disposition Event",
     "type": "Char",
     "core": "Exp",
     "origin": "Collected",
     "srcData": "dm_raw / ds_raw",
     "srcVar": "RFICDTC, RANDDTC, EOSDT",
     "rule": "Consent -> RFICDTC; Randomized -> RANDDTC; exit -> EOSDT",
     "ct": "",
     "notes": ""
    },
    {
     "name": "DSSTDY",
     "label": "Study Day of Start of Disposition Event",
     "type": "Num",
     "core": "Perm",
     "origin": "Derived",
     "srcData": "",
     "srcVar": "",
     "rule": "See Global Rules (--DY)",
     "ct": "",
     "notes": "Consent is negative; randomization = Day 1"
    }
   ],
   "example": {
    "usubjid": "ABC-01-01-002",
    "raw": {
     "STUDYID": "ABC-01",
     "SITEID": "01",
     "SUBJID": "002",
     "EOSSTAT": "Completed",
     "EOSDT": "31-MAR-2024",
     "EOSREAS": "",
     "EOSOTH": ""
    },
    "sdtm": {
     "STUDYID": "ABC-01",
     "DOMAIN": "DS",
     "USUBJID": "ABC-01-01-002",
     "DSSEQ": "1",
     "DSTERM": "Informed consent obtained",
     "DSDECOD": "INFORMED CONSENT OBTAINED",
     "DSCAT": "PROTOCOL MILESTONE",
     "DSSTDTC": "2024-02-22",
     "DSSTDY": "-11"
    }
   }
  }
 ]
}