{
 "study": "ABC-01",
 "subjects": [
  {
   "usubjid": "ABC-01-01-001",
   "site": "01",
   "subjid": "001",
   "age": 54,
   "ageu": "YEARS",
   "sex": "F",
   "race": "WHITE",
   "ethnic": "NOT HISPANIC OR LATINO",
   "country": "USA",
   "arm": "Drug A",
   "armcd": "A",
   "actarm": "Drug A",
   "milestones": {
    "consent": "2024-02-20",
    "firstDose": "2024-03-01",
    "lastDose": "2024-03-28",
    "endPart": "2024-03-28",
    "death": ""
   },
   "disposition": {
    "decod": "COMPLETED",
    "term": "Completed study",
    "dtc": "2024-03-28",
    "dy": 28
   },
   "dayRange": {
    "min": -60,
    "max": 28
   },
   "dosing": [
    {
     "trt": "Drug A",
     "dose": 50,
     "unit": "mg",
     "freq": "QD",
     "route": "ORAL",
     "startDtc": "2024-03-01",
     "endDtc": "2024-03-28",
     "startDy": 1,
     "endDy": 28
    }
   ],
   "ae": [
    {
     "seq": "1",
     "term": "bad headache",
     "decod": "Headache",
     "sev": "MODERATE",
     "ser": "N",
     "rel": "RELATED",
     "out": "RECOVERED/RESOLVED",
     "startDtc": "2024-03-15",
     "endDtc": "2024-03-16",
     "startDy": 15,
     "endDy": 16,
     "trtem": "Y"
    },
    {
     "seq": "2",
     "term": "Nausea",
     "decod": "Nausea",
     "sev": "MILD",
     "ser": "N",
     "rel": "POSSIBLY RELATED",
     "out": "NOT RECOVERED/NOT RESOLVED",
     "startDtc": "2024-03-20",
     "endDtc": "",
     "startDy": 20,
     "endDy": null,
     "trtem": "Y"
    }
   ],
   "cm": [
    {
     "trt": "Vitamin D",
     "decod": "COLECALCIFEROL",
     "indc": "supplementation",
     "dose": "1000",
     "unit": "IU",
     "route": "ORAL",
     "startDtc": "2024-01-01",
     "endDtc": "",
     "startDy": -60,
     "endDy": null
    },
    {
     "trt": "Paracetamol",
     "decod": "PARACETAMOL",
     "indc": "headache",
     "dose": "500",
     "unit": "mg",
     "route": "ORAL",
     "startDtc": "2024-03-15",
     "endDtc": "2024-03-16",
     "startDy": 15,
     "endDy": 16
    }
   ],
   "visits": [
    {
     "visitnum": 1,
     "visit": "SCREENING",
     "dy": -10
    },
    {
     "visitnum": 2,
     "visit": "BASELINE",
     "dy": 1
    },
    {
     "visitnum": 4,
     "visit": "WEEK 4",
     "dy": 28
    }
   ],
   "vs": [
    {
     "testcd": "DIABP",
     "test": "Diastolic Blood Pressure",
     "visit": "SCREENING",
     "visitnum": 1,
     "dtc": "2024-02-20",
     "dy": -10,
     "res": "80",
     "num": 80,
     "unit": "mmHg",
     "blfl": ""
    },
    {
     "testcd": "HEIGHT",
     "test": "Height",
     "visit": "SCREENING",
     "visitnum": 1,
     "dtc": "2024-02-20",
     "dy": -10,
     "res": "165",
     "num": 165,
     "unit": "cm",
     "blfl": ""
    },
    {
     "testcd": "PULSE",
     "test": "Pulse Rate",
     "visit": "SCREENING",
     "visitnum": 1,
     "dtc": "2024-02-20",
     "dy": -10,
     "res": "68",
     "num": 68,
     "unit": "beats/min",
     "blfl": ""
    },
    {
     "testcd": "SYSBP",
     "test": "Systolic Blood Pressure",
     "visit": "SCREENING",
     "visitnum": 1,
     "dtc": "2024-02-20",
     "dy": -10,
     "res": "122",
     "num": 122,
     "unit": "mmHg",
     "blfl": ""
    },
    {
     "testcd": "TEMP",
     "test": "Temperature",
     "visit": "SCREENING",
     "visitnum": 1,
     "dtc": "2024-02-20",
     "dy": -10,
     "res": "36.7",
     "num": 36.7,
     "unit": "C",
     "blfl": ""
    },
    {
     "testcd": "WEIGHT",
     "test": "Weight",
     "visit": "SCREENING",
     "visitnum": 1,
     "dtc": "2024-02-20",
     "dy": -10,
     "res": "70.5",
     "num": 70.5,
     "unit": "kg",
     "blfl": ""
    },
    {
     "testcd": "DIABP",
     "test": "Diastolic Blood Pressure",
     "visit": "BASELINE",
     "visitnum": 2,
     "dtc": "2024-03-01",
     "dy": 1,
     "res": "78",
     "num": 78,
     "unit": "mmHg",
     "blfl": "Y"
    },
    {
     "testcd": "PULSE",
     "test": "Pulse Rate",
     "visit": "BASELINE",
     "visitnum": 2,
     "dtc": "2024-03-01",
     "dy": 1,
     "res": "66",
     "num": 66,
     "unit": "beats/min",
     "blfl": "Y"
    },
    {
     "testcd": "SYSBP",
     "test": "Systolic Blood Pressure",
     "visit": "BASELINE",
     "visitnum": 2,
     "dtc": "2024-03-01",
     "dy": 1,
     "res": "120",
     "num": 120,
     "unit": "mmHg",
     "blfl": "Y"
    },
    {
     "testcd": "TEMP",
     "test": "Temperature",
     "visit": "BASELINE",
     "visitnum": 2,
     "dtc": "2024-03-01",
     "dy": 1,
     "res": "36.8",
     "num": 36.8,
     "unit": "C",
     "blfl": "Y"
    },
    {
     "testcd": "WEIGHT",
     "test": "Weight",
     "visit": "BASELINE",
     "visitnum": 2,
     "dtc": "2024-03-01",
     "dy": 1,
     "res": "70.2",
     "num": 70.2,
     "unit": "kg",
     "blfl": "Y"
    },
    {
     "testcd": "DIABP",
     "test": "Diastolic Blood Pressure",
     "visit": "WEEK 4",
     "visitnum": 4,
     "dtc": "2024-03-28",
     "dy": 28,
     "res": "76",
     "num": 76,
     "unit": "mmHg",
     "blfl": ""
    },
    {
     "testcd": "PULSE",
     "test": "Pulse Rate",
     "visit": "WEEK 4",
     "visitnum": 4,
     "dtc": "2024-03-28",
     "dy": 28,
     "res": "70",
     "num": 70,
     "unit": "beats/min",
     "blfl": ""
    },
    {
     "testcd": "SYSBP",
     "test": "Systolic Blood Pressure",
     "visit": "WEEK 4",
     "visitnum": 4,
     "dtc": "2024-03-28",
     "dy": 28,
     "res": "118",
     "num": 118,
     "unit": "mmHg",
     "blfl": ""
    },
    {
     "testcd": "TEMP",
     "test": "Temperature",
     "visit": "WEEK 4",
     "visitnum": 4,
     "dtc": "2024-03-28",
     "dy": 28,
     "res": "36.6",
     "num": 36.6,
     "unit": "C",
     "blfl": ""
    },
    {
     "testcd": "WEIGHT",
     "test": "Weight",
     "visit": "WEEK 4",
     "visitnum": 4,
     "dtc": "2024-03-28",
     "dy": 28,
     "res": "69.8",
     "num": 69.8,
     "unit": "kg",
     "blfl": ""
    }
   ],
   "lb": [
    {
     "testcd": "ALT",
     "test": "Alanine Aminotransferase",
     "visit": "BASELINE",
     "visitnum": 2,
     "dtc": "2024-03-01",
     "dy": 1,
     "res": "28",
     "num": 28,
     "unit": "U/L",
     "blfl": "Y",
     "lo": 7,
     "hi": 56,
     "nrind": "NORMAL"
    },
    {
     "testcd": "CREAT",
     "test": "Creatinine",
     "visit": "BASELINE",
     "visitnum": 2,
     "dtc": "2024-03-01",
     "dy": 1,
     "res": "0.9",
     "num": 0.9,
     "unit": "mg/dL",
     "blfl": "Y",
     "lo": 0.6,
     "hi": 1.3,
     "nrind": "NORMAL"
    },
    {
     "testcd": "HCT",
     "test": "Hematocrit",
     "visit": "BASELINE",
     "visitnum": 2,
     "dtc": "2024-03-01",
     "dy": 1,
     "res": "42",
     "num": 42,
     "unit": "%",
     "blfl": "Y",
     "lo": 37,
     "hi": 50,
     "nrind": "NORMAL"
    },
    {
     "testcd": "HGB",
     "test": "Hemoglobin",
     "visit": "BASELINE",
     "visitnum": 2,
     "dtc": "2024-03-01",
     "dy": 1,
     "res": "14.2",
     "num": 14.2,
     "unit": "g/dL",
     "blfl": "Y",
     "lo": 12.0,
     "hi": 17.0,
     "nrind": "NORMAL"
    },
    {
     "testcd": "PLAT",
     "test": "Platelets",
     "visit": "BASELINE",
     "visitnum": 2,
     "dtc": "2024-03-01",
     "dy": 1,
     "res": "250",
     "num": 250,
     "unit": "10^9/L",
     "blfl": "Y",
     "lo": 150,
     "hi": 400,
     "nrind": "NORMAL"
    },
    {
     "testcd": "WBC",
     "test": "Leukocytes",
     "visit": "BASELINE",
     "visitnum": 2,
     "dtc": "2024-03-01",
     "dy": 1,
     "res": "6.5",
     "num": 6.5,
     "unit": "10^9/L",
     "blfl": "Y",
     "lo": 4.0,
     "hi": 11.0,
     "nrind": "NORMAL"
    },
    {
     "testcd": "ALT",
     "test": "Alanine Aminotransferase",
     "visit": "WEEK 4",
     "visitnum": 4,
     "dtc": "2024-03-28",
     "dy": 28,
     "res": "31",
     "num": 31,
     "unit": "U/L",
     "blfl": "",
     "lo": 7,
     "hi": 56,
     "nrind": "NORMAL"
    },
    {
     "testcd": "CREAT",
     "test": "Creatinine",
     "visit": "WEEK 4",
     "visitnum": 4,
     "dtc": "2024-03-28",
     "dy": 28,
     "res": "0.9",
     "num": 0.9,
     "unit": "mg/dL",
     "blfl": "",
     "lo": 0.6,
     "hi": 1.3,
     "nrind": "NORMAL"
    },
    {
     "testcd": "HCT",
     "test": "Hematocrit",
     "visit": "WEEK 4",
     "visitnum": 4,
     "dtc": "2024-03-28",
     "dy": 28,
     "res": "41",
     "num": 41,
     "unit": "%",
     "blfl": "",
     "lo": 37,
     "hi": 50,
     "nrind": "NORMAL"
    },
    {
     "testcd": "HGB",
     "test": "Hemoglobin",
     "visit": "WEEK 4",
     "visitnum": 4,
     "dtc": "2024-03-28",
     "dy": 28,
     "res": "14.0",
     "num": 14,
     "unit": "g/dL",
     "blfl": "",
     "lo": 12.0,
     "hi": 17.0,
     "nrind": "NORMAL"
    },
    {
     "testcd": "PLAT",
     "test": "Platelets",
     "visit": "WEEK 4",
     "visitnum": 4,
     "dtc": "2024-03-28",
     "dy": 28,
     "res": "255",
     "num": 255,
     "unit": "10^9/L",
     "blfl": "",
     "lo": 150,
     "hi": 400,
     "nrind": "NORMAL"
    },
    {
     "testcd": "WBC",
     "test": "Leukocytes",
     "visit": "WEEK 4",
     "visitnum": 4,
     "dtc": "2024-03-28",
     "dy": 28,
     "res": "6.8",
     "num": 6.8,
     "unit": "10^9/L",
     "blfl": "",
     "lo": 4.0,
     "hi": 11.0,
     "nrind": "NORMAL"
    }
   ]
  },
  {
   "usubjid": "ABC-01-01-002",
   "site": "01",
   "subjid": "002",
   "age": 60,
   "ageu": "YEARS",
   "sex": "M",
   "race": "ASIAN",
   "ethnic": "NOT HISPANIC OR LATINO",
   "country": "JPN",
   "arm": "Placebo",
   "armcd": "P",
   "actarm": "Placebo",
   "milestones": {
    "consent": "2024-02-22",
    "firstDose": "2024-03-04",
    "lastDose": "2024-03-31",
    "endPart": "2024-03-31",
    "death": ""
   },
   "disposition": {
    "decod": "COMPLETED",
    "term": "Completed study",
    "dtc": "2024-03-31",
    "dy": 28
   },
   "dayRange": {
    "min": -32,
    "max": 29
   },
   "dosing": [
    {
     "trt": "Placebo",
     "dose": 0,
     "unit": "mg",
     "freq": "QD",
     "route": "ORAL",
     "startDtc": "2024-03-04",
     "endDtc": "2024-03-31",
     "startDy": 1,
     "endDy": 28
    }
   ],
   "ae": [
    {
     "seq": "1",
     "term": "sore throat",
     "decod": "Oropharyngeal pain",
     "sev": "MILD",
     "ser": "N",
     "rel": "NOT RELATED",
     "out": "RECOVERED/RESOLVED",
     "startDtc": "2024-02-28",
     "endDtc": "2024-03-02",
     "startDy": -5,
     "endDy": -2,
     "trtem": "N"
    },
    {
     "seq": "2",
     "term": "mild dizziness",
     "decod": "Dizziness",
     "sev": "MILD",
     "ser": "N",
     "rel": "NOT RELATED",
     "out": "RECOVERED/RESOLVED",
     "startDtc": "2024-03-10",
     "endDtc": "2024-03-12",
     "startDy": 7,
     "endDy": 9,
     "trtem": "Y"
    }
   ],
   "cm": [
    {
     "trt": "Lisinopril",
     "decod": "LISINOPRIL",
     "indc": "hypertension",
     "dose": "10",
     "unit": "mg",
     "route": "ORAL",
     "startDtc": "2024-02-01",
     "endDtc": "",
     "startDy": -32,
     "endDy": null
    }
   ],
   "visits": [
    {
     "visitnum": 1,
     "visit": "SCREENING",
     "dy": -11
    },
    {
     "visitnum": 2,
     "visit": "BASELINE",
     "dy": 1
    },
    {
     "visitnum": 4,
     "visit": "WEEK 4",
     "dy": 29
    }
   ],
   "vs": [
    {
     "testcd": "DIABP",
     "test": "Diastolic Blood Pressure",
     "visit": "SCREENING",
     "visitnum": 1,
     "dtc": "2024-02-22",
     "dy": -11,
     "res": "86",
     "num": 86,
     "unit": "mmHg",
     "blfl": ""
    },
    {
     "testcd": "HEIGHT",
     "test": "Height",
     "visit": "SCREENING",
     "visitnum": 1,
     "dtc": "2024-02-22",
     "dy": -11,
     "res": "178",
     "num": 178,
     "unit": "cm",
     "blfl": ""
    },
    {
     "testcd": "PULSE",
     "test": "Pulse Rate",
     "visit": "SCREENING",
     "visitnum": 1,
     "dtc": "2024-02-22",
     "dy": -11,
     "res": "72",
     "num": 72,
     "unit": "beats/min",
     "blfl": ""
    },
    {
     "testcd": "SYSBP",
     "test": "Systolic Blood Pressure",
     "visit": "SCREENING",
     "visitnum": 1,
     "dtc": "2024-02-22",
     "dy": -11,
     "res": "134",
     "num": 134,
     "unit": "mmHg",
     "blfl": ""
    },
    {
     "testcd": "TEMP",
     "test": "Temperature",
     "visit": "SCREENING",
     "visitnum": 1,
     "dtc": "2024-02-22",
     "dy": -11,
     "res": "36.9",
     "num": 36.9,
     "unit": "C",
     "blfl": ""
    },
    {
     "testcd": "WEIGHT",
     "test": "Weight",
     "visit": "SCREENING",
     "visitnum": 1,
     "dtc": "2024-02-22",
     "dy": -11,
     "res": "82.0",
     "num": 82,
     "unit": "kg",
     "blfl": ""
    },
    {
     "testcd": "DIABP",
     "test": "Diastolic Blood Pressure",
     "visit": "BASELINE",
     "visitnum": 2,
     "dtc": "2024-03-04",
     "dy": 1,
     "res": "84",
     "num": 84,
     "unit": "mmHg",
     "blfl": "Y"
    },
    {
     "testcd": "PULSE",
     "test": "Pulse Rate",
     "visit": "BASELINE",
     "visitnum": 2,
     "dtc": "2024-03-04",
     "dy": 1,
     "res": "70",
     "num": 70,
     "unit": "beats/min",
     "blfl": "Y"
    },
    {
     "testcd": "SYSBP",
     "test": "Systolic Blood Pressure",
     "visit": "BASELINE",
     "visitnum": 2,
     "dtc": "2024-03-04",
     "dy": 1,
     "res": "132",
     "num": 132,
     "unit": "mmHg",
     "blfl": "Y"
    },
    {
     "testcd": "TEMP",
     "test": "Temperature",
     "visit": "BASELINE",
     "visitnum": 2,
     "dtc": "2024-03-04",
     "dy": 1,
     "res": "37.0",
     "num": 37,
     "unit": "C",
     "blfl": "Y"
    },
    {
     "testcd": "WEIGHT",
     "test": "Weight",
     "visit": "BASELINE",
     "visitnum": 2,
     "dtc": "2024-03-04",
     "dy": 1,
     "res": "81.5",
     "num": 81.5,
     "unit": "kg",
     "blfl": "Y"
    },
    {
     "testcd": "DIABP",
     "test": "Diastolic Blood Pressure",
     "visit": "WEEK 4",
     "visitnum": 4,
     "dtc": "2024-04-01",
     "dy": 29,
     "res": "82",
     "num": 82,
     "unit": "mmHg",
     "blfl": ""
    },
    {
     "testcd": "PULSE",
     "test": "Pulse Rate",
     "visit": "WEEK 4",
     "visitnum": 4,
     "dtc": "2024-04-01",
     "dy": 29,
     "res": "74",
     "num": 74,
     "unit": "beats/min",
     "blfl": ""
    },
    {
     "testcd": "SYSBP",
     "test": "Systolic Blood Pressure",
     "visit": "WEEK 4",
     "visitnum": 4,
     "dtc": "2024-04-01",
     "dy": 29,
     "res": "130",
     "num": 130,
     "unit": "mmHg",
     "blfl": ""
    },
    {
     "testcd": "TEMP",
     "test": "Temperature",
     "visit": "WEEK 4",
     "visitnum": 4,
     "dtc": "2024-04-01",
     "dy": 29,
     "res": "36.7",
     "num": 36.7,
     "unit": "C",
     "blfl": ""
    },
    {
     "testcd": "WEIGHT",
     "test": "Weight",
     "visit": "WEEK 4",
     "visitnum": 4,
     "dtc": "2024-04-01",
     "dy": 29,
     "res": "81.0",
     "num": 81,
     "unit": "kg",
     "blfl": ""
    }
   ],
   "lb": [
    {
     "testcd": "ALT",
     "test": "Alanine Aminotransferase",
     "visit": "BASELINE",
     "visitnum": 2,
     "dtc": "2024-03-04",
     "dy": 1,
     "res": "35",
     "num": 35,
     "unit": "U/L",
     "blfl": "Y",
     "lo": 7,
     "hi": 56,
     "nrind": "NORMAL"
    },
    {
     "testcd": "CREAT",
     "test": "Creatinine",
     "visit": "BASELINE",
     "visitnum": 2,
     "dtc": "2024-03-04",
     "dy": 1,
     "res": "1.1",
     "num": 1.1,
     "unit": "mg/dL",
     "blfl": "Y",
     "lo": 0.6,
     "hi": 1.3,
     "nrind": "NORMAL"
    },
    {
     "testcd": "HCT",
     "test": "Hematocrit",
     "visit": "BASELINE",
     "visitnum": 2,
     "dtc": "2024-03-04",
     "dy": 1,
     "res": "45",
     "num": 45,
     "unit": "%",
     "blfl": "Y",
     "lo": 37,
     "hi": 50,
     "nrind": "NORMAL"
    },
    {
     "testcd": "HGB",
     "test": "Hemoglobin",
     "visit": "BASELINE",
     "visitnum": 2,
     "dtc": "2024-03-04",
     "dy": 1,
     "res": "15.1",
     "num": 15.1,
     "unit": "g/dL",
     "blfl": "Y",
     "lo": 12.0,
     "hi": 17.0,
     "nrind": "NORMAL"
    },
    {
     "testcd": "PLAT",
     "test": "Platelets",
     "visit": "BASELINE",
     "visitnum": 2,
     "dtc": "2024-03-04",
     "dy": 1,
     "res": "310",
     "num": 310,
     "unit": "10^9/L",
     "blfl": "Y",
     "lo": 150,
     "hi": 400,
     "nrind": "NORMAL"
    },
    {
     "testcd": "WBC",
     "test": "Leukocytes",
     "visit": "BASELINE",
     "visitnum": 2,
     "dtc": "2024-03-04",
     "dy": 1,
     "res": "7.2",
     "num": 7.2,
     "unit": "10^9/L",
     "blfl": "Y",
     "lo": 4.0,
     "hi": 11.0,
     "nrind": "NORMAL"
    },
    {
     "testcd": "ALT",
     "test": "Alanine Aminotransferase",
     "visit": "WEEK 4",
     "visitnum": 4,
     "dtc": "2024-04-01",
     "dy": 29,
     "res": "33",
     "num": 33,
     "unit": "U/L",
     "blfl": "",
     "lo": 7,
     "hi": 56,
     "nrind": "NORMAL"
    },
    {
     "testcd": "CREAT",
     "test": "Creatinine",
     "visit": "WEEK 4",
     "visitnum": 4,
     "dtc": "2024-04-01",
     "dy": 29,
     "res": "1.0",
     "num": 1,
     "unit": "mg/dL",
     "blfl": "",
     "lo": 0.6,
     "hi": 1.3,
     "nrind": "NORMAL"
    },
    {
     "testcd": "HCT",
     "test": "Hematocrit",
     "visit": "WEEK 4",
     "visitnum": 4,
     "dtc": "2024-04-01",
     "dy": 29,
     "res": "44",
     "num": 44,
     "unit": "%",
     "blfl": "",
     "lo": 37,
     "hi": 50,
     "nrind": "NORMAL"
    },
    {
     "testcd": "HGB",
     "test": "Hemoglobin",
     "visit": "WEEK 4",
     "visitnum": 4,
     "dtc": "2024-04-01",
     "dy": 29,
     "res": "15.0",
     "num": 15,
     "unit": "g/dL",
     "blfl": "",
     "lo": 12.0,
     "hi": 17.0,
     "nrind": "NORMAL"
    },
    {
     "testcd": "PLAT",
     "test": "Platelets",
     "visit": "WEEK 4",
     "visitnum": 4,
     "dtc": "2024-04-01",
     "dy": 29,
     "res": "305",
     "num": 305,
     "unit": "10^9/L",
     "blfl": "",
     "lo": 150,
     "hi": 400,
     "nrind": "NORMAL"
    },
    {
     "testcd": "WBC",
     "test": "Leukocytes",
     "visit": "WEEK 4",
     "visitnum": 4,
     "dtc": "2024-04-01",
     "dy": 29,
     "res": "7.0",
     "num": 7,
     "unit": "10^9/L",
     "blfl": "",
     "lo": 4.0,
     "hi": 11.0,
     "nrind": "NORMAL"
    }
   ]
  },
  {
   "usubjid": "ABC-01-01-003",
   "site": "01",
   "subjid": "003",
   "age": 46,
   "ageu": "YEARS",
   "sex": "F",
   "race": "BLACK OR AFRICAN AMERICAN",
   "ethnic": "NOT HISPANIC OR LATINO",
   "country": "USA",
   "arm": "Drug A",
   "armcd": "A",
   "actarm": "Drug A",
   "milestones": {
    "consent": "2024-02-25",
    "firstDose": "2024-03-05",
    "lastDose": "2024-04-01",
    "endPart": "2024-04-01",
    "death": ""
   },
   "disposition": {
    "decod": "COMPLETED",
    "term": "Completed study",
    "dtc": "2024-04-01",
    "dy": 28
   },
   "dayRange": {
    "min": -9,
    "max": 28
   },
   "dosing": [
    {
     "trt": "Drug A",
     "dose": 50,
     "unit": "mg",
     "freq": "QD",
     "route": "ORAL",
     "startDtc": "2024-03-05",
     "endDtc": "2024-04-01",
     "startDy": 1,
     "endDy": 28
    }
   ],
   "ae": [],
   "cm": [],
   "visits": [
    {
     "visitnum": 1,
     "visit": "SCREENING",
     "dy": -9
    },
    {
     "visitnum": 2,
     "visit": "BASELINE",
     "dy": 1
    },
    {
     "visitnum": 4,
     "visit": "WEEK 4",
     "dy": 28
    }
   ],
   "vs": [
    {
     "testcd": "DIABP",
     "test": "Diastolic Blood Pressure",
     "visit": "SCREENING",
     "visitnum": 1,
     "dtc": "2024-02-25",
     "dy": -9,
     "res": "74",
     "num": 74,
     "unit": "mmHg",
     "blfl": ""
    },
    {
     "testcd": "HEIGHT",
     "test": "Height",
     "visit": "SCREENING",
     "visitnum": 1,
     "dtc": "2024-02-25",
     "dy": -9,
     "res": "160",
     "num": 160,
     "unit": "cm",
     "blfl": ""
    },
    {
     "testcd": "PULSE",
     "test": "Pulse Rate",
     "visit": "SCREENING",
     "visitnum": 1,
     "dtc": "2024-02-25",
     "dy": -9,
     "res": "64",
     "num": 64,
     "unit": "beats/min",
     "blfl": ""
    },
    {
     "testcd": "SYSBP",
     "test": "Systolic Blood Pressure",
     "visit": "SCREENING",
     "visitnum": 1,
     "dtc": "2024-02-25",
     "dy": -9,
     "res": "118",
     "num": 118,
     "unit": "mmHg",
     "blfl": ""
    },
    {
     "testcd": "TEMP",
     "test": "Temperature",
     "visit": "SCREENING",
     "visitnum": 1,
     "dtc": "2024-02-25",
     "dy": -9,
     "res": "36.5",
     "num": 36.5,
     "unit": "C",
     "blfl": ""
    },
    {
     "testcd": "WEIGHT",
     "test": "Weight",
     "visit": "SCREENING",
     "visitnum": 1,
     "dtc": "2024-02-25",
     "dy": -9,
     "res": "58.3",
     "num": 58.3,
     "unit": "kg",
     "blfl": ""
    },
    {
     "testcd": "DIABP",
     "test": "Diastolic Blood Pressure",
     "visit": "BASELINE",
     "visitnum": 2,
     "dtc": "2024-03-05",
     "dy": 1,
     "res": "72",
     "num": 72,
     "unit": "mmHg",
     "blfl": "Y"
    },
    {
     "testcd": "PULSE",
     "test": "Pulse Rate",
     "visit": "BASELINE",
     "visitnum": 2,
     "dtc": "2024-03-05",
     "dy": 1,
     "res": "66",
     "num": 66,
     "unit": "beats/min",
     "blfl": "Y"
    },
    {
     "testcd": "SYSBP",
     "test": "Systolic Blood Pressure",
     "visit": "BASELINE",
     "visitnum": 2,
     "dtc": "2024-03-05",
     "dy": 1,
     "res": "116",
     "num": 116,
     "unit": "mmHg",
     "blfl": "Y"
    },
    {
     "testcd": "TEMP",
     "test": "Temperature",
     "visit": "BASELINE",
     "visitnum": 2,
     "dtc": "2024-03-05",
     "dy": 1,
     "res": "36.6",
     "num": 36.6,
     "unit": "C",
     "blfl": "Y"
    },
    {
     "testcd": "WEIGHT",
     "test": "Weight",
     "visit": "BASELINE",
     "visitnum": 2,
     "dtc": "2024-03-05",
     "dy": 1,
     "res": "58.0",
     "num": 58,
     "unit": "kg",
     "blfl": "Y"
    },
    {
     "testcd": "DIABP",
     "test": "Diastolic Blood Pressure",
     "visit": "WEEK 4",
     "visitnum": 4,
     "dtc": "2024-04-01",
     "dy": 28,
     "res": "70",
     "num": 70,
     "unit": "mmHg",
     "blfl": ""
    },
    {
     "testcd": "PULSE",
     "test": "Pulse Rate",
     "visit": "WEEK 4",
     "visitnum": 4,
     "dtc": "2024-04-01",
     "dy": 28,
     "res": "62",
     "num": 62,
     "unit": "beats/min",
     "blfl": ""
    },
    {
     "testcd": "SYSBP",
     "test": "Systolic Blood Pressure",
     "visit": "WEEK 4",
     "visitnum": 4,
     "dtc": "2024-04-01",
     "dy": 28,
     "res": "115",
     "num": 115,
     "unit": "mmHg",
     "blfl": ""
    },
    {
     "testcd": "TEMP",
     "test": "Temperature",
     "visit": "WEEK 4",
     "visitnum": 4,
     "dtc": "2024-04-01",
     "dy": 28,
     "res": "36.5",
     "num": 36.5,
     "unit": "C",
     "blfl": ""
    },
    {
     "testcd": "WEIGHT",
     "test": "Weight",
     "visit": "WEEK 4",
     "visitnum": 4,
     "dtc": "2024-04-01",
     "dy": 28,
     "res": "57.6",
     "num": 57.6,
     "unit": "kg",
     "blfl": ""
    }
   ],
   "lb": [
    {
     "testcd": "ALT",
     "test": "Alanine Aminotransferase",
     "visit": "BASELINE",
     "visitnum": 2,
     "dtc": "2024-03-05",
     "dy": 1,
     "res": "24",
     "num": 24,
     "unit": "U/L",
     "blfl": "Y",
     "lo": 7,
     "hi": 56,
     "nrind": "NORMAL"
    },
    {
     "testcd": "CREAT",
     "test": "Creatinine",
     "visit": "BASELINE",
     "visitnum": 2,
     "dtc": "2024-03-05",
     "dy": 1,
     "res": "0.7",
     "num": 0.7,
     "unit": "mg/dL",
     "blfl": "Y",
     "lo": 0.6,
     "hi": 1.3,
     "nrind": "NORMAL"
    },
    {
     "testcd": "HCT",
     "test": "Hematocrit",
     "visit": "BASELINE",
     "visitnum": 2,
     "dtc": "2024-03-05",
     "dy": 1,
     "res": "38",
     "num": 38,
     "unit": "%",
     "blfl": "Y",
     "lo": 37,
     "hi": 50,
     "nrind": "NORMAL"
    },
    {
     "testcd": "HGB",
     "test": "Hemoglobin",
     "visit": "BASELINE",
     "visitnum": 2,
     "dtc": "2024-03-05",
     "dy": 1,
     "res": "12.8",
     "num": 12.8,
     "unit": "g/dL",
     "blfl": "Y",
     "lo": 12.0,
     "hi": 17.0,
     "nrind": "NORMAL"
    },
    {
     "testcd": "PLAT",
     "test": "Platelets",
     "visit": "BASELINE",
     "visitnum": 2,
     "dtc": "2024-03-05",
     "dy": 1,
     "res": "220",
     "num": 220,
     "unit": "10^9/L",
     "blfl": "Y",
     "lo": 150,
     "hi": 400,
     "nrind": "NORMAL"
    },
    {
     "testcd": "WBC",
     "test": "Leukocytes",
     "visit": "BASELINE",
     "visitnum": 2,
     "dtc": "2024-03-05",
     "dy": 1,
     "res": "5.9",
     "num": 5.9,
     "unit": "10^9/L",
     "blfl": "Y",
     "lo": 4.0,
     "hi": 11.0,
     "nrind": "NORMAL"
    },
    {
     "testcd": "ALT",
     "test": "Alanine Aminotransferase",
     "visit": "WEEK 4",
     "visitnum": 4,
     "dtc": "2024-04-01",
     "dy": 28,
     "res": "72",
     "num": 72,
     "unit": "U/L",
     "blfl": "",
     "lo": 7,
     "hi": 56,
     "nrind": "HIGH"
    },
    {
     "testcd": "CREAT",
     "test": "Creatinine",
     "visit": "WEEK 4",
     "visitnum": 4,
     "dtc": "2024-04-01",
     "dy": 28,
     "res": "0.8",
     "num": 0.8,
     "unit": "mg/dL",
     "blfl": "",
     "lo": 0.6,
     "hi": 1.3,
     "nrind": "NORMAL"
    },
    {
     "testcd": "HCT",
     "test": "Hematocrit",
     "visit": "WEEK 4",
     "visitnum": 4,
     "dtc": "2024-04-01",
     "dy": 28,
     "res": "37",
     "num": 37,
     "unit": "%",
     "blfl": "",
     "lo": 37,
     "hi": 50,
     "nrind": "NORMAL"
    },
    {
     "testcd": "HGB",
     "test": "Hemoglobin",
     "visit": "WEEK 4",
     "visitnum": 4,
     "dtc": "2024-04-01",
     "dy": 28,
     "res": "12.6",
     "num": 12.6,
     "unit": "g/dL",
     "blfl": "",
     "lo": 12.0,
     "hi": 17.0,
     "nrind": "NORMAL"
    },
    {
     "testcd": "PLAT",
     "test": "Platelets",
     "visit": "WEEK 4",
     "visitnum": 4,
     "dtc": "2024-04-01",
     "dy": 28,
     "res": "215",
     "num": 215,
     "unit": "10^9/L",
     "blfl": "",
     "lo": 150,
     "hi": 400,
     "nrind": "NORMAL"
    },
    {
     "testcd": "WBC",
     "test": "Leukocytes",
     "visit": "WEEK 4",
     "visitnum": 4,
     "dtc": "2024-04-01",
     "dy": 28,
     "res": "6.1",
     "num": 6.1,
     "unit": "10^9/L",
     "blfl": "",
     "lo": 4.0,
     "hi": 11.0,
     "nrind": "NORMAL"
    }
   ]
  },
  {
   "usubjid": "ABC-01-01-004",
   "site": "01",
   "subjid": "004",
   "age": 66,
   "ageu": "YEARS",
   "sex": "M",
   "race": "WHITE",
   "ethnic": "HISPANIC OR LATINO",
   "country": "USA",
   "arm": "Placebo",
   "armcd": "P",
   "actarm": "Placebo",
   "milestones": {
    "consent": "2024-02-26",
    "firstDose": "2024-03-06",
    "lastDose": "2024-03-25",
    "endPart": "2024-03-25",
    "death": ""
   },
   "disposition": {
    "decod": "ADVERSE EVENT",
    "term": "Discontinued: Adverse event",
    "dtc": "2024-03-25",
    "dy": 20
   },
   "dayRange": {
    "min": -61,
    "max": 20
   },
   "dosing": [
    {
     "trt": "Placebo",
     "dose": 0,
     "unit": "mg",
     "freq": "QD",
     "route": "ORAL",
     "startDtc": "2024-03-06",
     "endDtc": "2024-03-25",
     "startDy": 1,
     "endDy": 20
    }
   ],
   "ae": [
    {
     "seq": "1",
     "term": "fatigue",
     "decod": "Fatigue",
     "sev": "MODERATE",
     "ser": "N",
     "rel": "POSSIBLY RELATED",
     "out": "NOT RECOVERED/NOT RESOLVED",
     "startDtc": "2024-03-18",
     "endDtc": "",
     "startDy": 13,
     "endDy": null,
     "trtem": "Y"
    },
    {
     "seq": "2",
     "term": "worsening hypertension",
     "decod": "Hypertension",
     "sev": "SEVERE",
     "ser": "Y",
     "rel": "RELATED",
     "out": "RECOVERED/RESOLVED",
     "startDtc": "2024-03-22",
     "endDtc": "2024-03-25",
     "startDy": 17,
     "endDy": 20,
     "trtem": "Y"
    }
   ],
   "cm": [
    {
     "trt": "Amlodipine",
     "decod": "AMLODIPINE",
     "indc": "high blood pressure",
     "dose": "5",
     "unit": "mg",
     "route": "ORAL",
     "startDtc": "2024-01-05",
     "endDtc": "",
     "startDy": -61,
     "endDy": null
    }
   ],
   "visits": [
    {
     "visitnum": 1,
     "visit": "SCREENING",
     "dy": -9
    },
    {
     "visitnum": 2,
     "visit": "BASELINE",
     "dy": 1
    },
    {
     "visitnum": 4,
     "visit": "WEEK 4",
     "dy": 20
    }
   ],
   "vs": [
    {
     "testcd": "DIABP",
     "test": "Diastolic Blood Pressure",
     "visit": "SCREENING",
     "visitnum": 1,
     "dtc": "2024-02-26",
     "dy": -9,
     "res": "90",
     "num": 90,
     "unit": "mmHg",
     "blfl": ""
    },
    {
     "testcd": "HEIGHT",
     "test": "Height",
     "visit": "SCREENING",
     "visitnum": 1,
     "dtc": "2024-02-26",
     "dy": -9,
     "res": "175",
     "num": 175,
     "unit": "cm",
     "blfl": ""
    },
    {
     "testcd": "PULSE",
     "test": "Pulse Rate",
     "visit": "SCREENING",
     "visitnum": 1,
     "dtc": "2024-02-26",
     "dy": -9,
     "res": "78",
     "num": 78,
     "unit": "beats/min",
     "blfl": ""
    },
    {
     "testcd": "SYSBP",
     "test": "Systolic Blood Pressure",
     "visit": "SCREENING",
     "visitnum": 1,
     "dtc": "2024-02-26",
     "dy": -9,
     "res": "140",
     "num": 140,
     "unit": "mmHg",
     "blfl": ""
    },
    {
     "testcd": "TEMP",
     "test": "Temperature",
     "visit": "SCREENING",
     "visitnum": 1,
     "dtc": "2024-02-26",
     "dy": -9,
     "res": "36.8",
     "num": 36.8,
     "unit": "C",
     "blfl": ""
    },
    {
     "testcd": "WEIGHT",
     "test": "Weight",
     "visit": "SCREENING",
     "visitnum": 1,
     "dtc": "2024-02-26",
     "dy": -9,
     "res": "90.1",
     "num": 90.1,
     "unit": "kg",
     "blfl": ""
    },
    {
     "testcd": "DIABP",
     "test": "Diastolic Blood Pressure",
     "visit": "BASELINE",
     "visitnum": 2,
     "dtc": "2024-03-06",
     "dy": 1,
     "res": "92",
     "num": 92,
     "unit": "mmHg",
     "blfl": "Y"
    },
    {
     "testcd": "PULSE",
     "test": "Pulse Rate",
     "visit": "BASELINE",
     "visitnum": 2,
     "dtc": "2024-03-06",
     "dy": 1,
     "res": "80",
     "num": 80,
     "unit": "beats/min",
     "blfl": "Y"
    },
    {
     "testcd": "SYSBP",
     "test": "Systolic Blood Pressure",
     "visit": "BASELINE",
     "visitnum": 2,
     "dtc": "2024-03-06",
     "dy": 1,
     "res": "142",
     "num": 142,
     "unit": "mmHg",
     "blfl": "Y"
    },
    {
     "testcd": "TEMP",
     "test": "Temperature",
     "visit": "BASELINE",
     "visitnum": 2,
     "dtc": "2024-03-06",
     "dy": 1,
     "res": "36.9",
     "num": 36.9,
     "unit": "C",
     "blfl": "Y"
    },
    {
     "testcd": "WEIGHT",
     "test": "Weight",
     "visit": "BASELINE",
     "visitnum": 2,
     "dtc": "2024-03-06",
     "dy": 1,
     "res": "90.4",
     "num": 90.4,
     "unit": "kg",
     "blfl": "Y"
    },
    {
     "testcd": "DIABP",
     "test": "Diastolic Blood Pressure",
     "visit": "WEEK 4",
     "visitnum": 4,
     "dtc": "2024-03-25",
     "dy": 20,
     "res": "98",
     "num": 98,
     "unit": "mmHg",
     "blfl": ""
    },
    {
     "testcd": "PULSE",
     "test": "Pulse Rate",
     "visit": "WEEK 4",
     "visitnum": 4,
     "dtc": "2024-03-25",
     "dy": 20,
     "res": "84",
     "num": 84,
     "unit": "beats/min",
     "blfl": ""
    },
    {
     "testcd": "SYSBP",
     "test": "Systolic Blood Pressure",
     "visit": "WEEK 4",
     "visitnum": 4,
     "dtc": "2024-03-25",
     "dy": 20,
     "res": "158",
     "num": 158,
     "unit": "mmHg",
     "blfl": ""
    },
    {
     "testcd": "TEMP",
     "test": "Temperature",
     "visit": "WEEK 4",
     "visitnum": 4,
     "dtc": "2024-03-25",
     "dy": 20,
     "res": "37.0",
     "num": 37,
     "unit": "C",
     "blfl": ""
    },
    {
     "testcd": "WEIGHT",
     "test": "Weight",
     "visit": "WEEK 4",
     "visitnum": 4,
     "dtc": "2024-03-25",
     "dy": 20,
     "res": "91.0",
     "num": 91,
     "unit": "kg",
     "blfl": ""
    }
   ],
   "lb": []
  },
  {
   "usubjid": "ABC-01-02-001",
   "site": "02",
   "subjid": "001",
   "age": 51,
   "ageu": "YEARS",
   "sex": "M",
   "race": "WHITE",
   "ethnic": "NOT HISPANIC OR LATINO",
   "country": "GBR",
   "arm": "Drug A",
   "armcd": "A",
   "actarm": "Drug A",
   "milestones": {
    "consent": "2024-03-01",
    "firstDose": "2024-03-11",
    "lastDose": "2024-04-07",
    "endPart": "2024-04-07",
    "death": ""
   },
   "disposition": {
    "decod": "COMPLETED",
    "term": "Completed study",
    "dtc": "2024-04-07",
    "dy": 28
   },
   "dayRange": {
    "min": -10,
    "max": 28
   },
   "dosing": [
    {
     "trt": "Drug A",
     "dose": 50,
     "unit": "mg",
     "freq": "QD",
     "route": "ORAL",
     "startDtc": "2024-03-11",
     "endDtc": "2024-04-07",
     "startDy": 1,
     "endDy": 28
    }
   ],
   "ae": [
    {
     "seq": "1",
     "term": "Headache",
     "decod": "Headache",
     "sev": "MILD",
     "ser": "N",
     "rel": "RELATED",
     "out": "RECOVERED/RESOLVED",
     "startDtc": "2024-03-15",
     "endDtc": "2024-03-15",
     "startDy": 5,
     "endDy": 5,
     "trtem": "Y"
    },
    {
     "seq": "2",
     "term": "insomnia",
     "decod": "Insomnia",
     "sev": "MILD",
     "ser": "N",
     "rel": "UNLIKELY RELATED",
     "out": "RECOVERED/RESOLVED",
     "startDtc": "2024-03-18",
     "endDtc": "2024-03-22",
     "startDy": 8,
     "endDy": 12,
     "trtem": "Y"
    }
   ],
   "cm": [
    {
     "trt": "Aspirin",
     "decod": "ACETYLSALICYLIC ACID",
     "indc": "headache",
     "dose": "100",
     "unit": "mg",
     "route": "ORAL",
     "startDtc": "2024-03-15",
     "endDtc": "2024-03-15",
     "startDy": 5,
     "endDy": 5
    }
   ],
   "visits": [
    {
     "visitnum": 1,
     "visit": "SCREENING",
     "dy": -10
    },
    {
     "visitnum": 2,
     "visit": "BASELINE",
     "dy": 1
    },
    {
     "visitnum": 4,
     "visit": "WEEK 4",
     "dy": 28
    }
   ],
   "vs": [
    {
     "testcd": "DIABP",
     "test": "Diastolic Blood Pressure",
     "visit": "SCREENING",
     "visitnum": 1,
     "dtc": "2024-03-01",
     "dy": -10,
     "res": "82",
     "num": 82,
     "unit": "mmHg",
     "blfl": ""
    },
    {
     "testcd": "HEIGHT",
     "test": "Height",
     "visit": "SCREENING",
     "visitnum": 1,
     "dtc": "2024-03-01",
     "dy": -10,
     "res": "182",
     "num": 182,
     "unit": "cm",
     "blfl": ""
    },
    {
     "testcd": "PULSE",
     "test": "Pulse Rate",
     "visit": "SCREENING",
     "visitnum": 1,
     "dtc": "2024-03-01",
     "dy": -10,
     "res": "70",
     "num": 70,
     "unit": "beats/min",
     "blfl": ""
    },
    {
     "testcd": "SYSBP",
     "test": "Systolic Blood Pressure",
     "visit": "SCREENING",
     "visitnum": 1,
     "dtc": "2024-03-01",
     "dy": -10,
     "res": "126",
     "num": 126,
     "unit": "mmHg",
     "blfl": ""
    },
    {
     "testcd": "TEMP",
     "test": "Temperature",
     "visit": "SCREENING",
     "visitnum": 1,
     "dtc": "2024-03-01",
     "dy": -10,
     "res": "36.6",
     "num": 36.6,
     "unit": "C",
     "blfl": ""
    },
    {
     "testcd": "WEIGHT",
     "test": "Weight",
     "visit": "SCREENING",
     "visitnum": 1,
     "dtc": "2024-03-01",
     "dy": -10,
     "res": "88.7",
     "num": 88.7,
     "unit": "kg",
     "blfl": ""
    },
    {
     "testcd": "DIABP",
     "test": "Diastolic Blood Pressure",
     "visit": "BASELINE",
     "visitnum": 2,
     "dtc": "2024-03-11",
     "dy": 1,
     "res": "80",
     "num": 80,
     "unit": "mmHg",
     "blfl": "Y"
    },
    {
     "testcd": "PULSE",
     "test": "Pulse Rate",
     "visit": "BASELINE",
     "visitnum": 2,
     "dtc": "2024-03-11",
     "dy": 1,
     "res": "68",
     "num": 68,
     "unit": "beats/min",
     "blfl": "Y"
    },
    {
     "testcd": "SYSBP",
     "test": "Systolic Blood Pressure",
     "visit": "BASELINE",
     "visitnum": 2,
     "dtc": "2024-03-11",
     "dy": 1,
     "res": "124",
     "num": 124,
     "unit": "mmHg",
     "blfl": "Y"
    },
    {
     "testcd": "TEMP",
     "test": "Temperature",
     "visit": "BASELINE",
     "visitnum": 2,
     "dtc": "2024-03-11",
     "dy": 1,
     "res": "36.7",
     "num": 36.7,
     "unit": "C",
     "blfl": "Y"
    },
    {
     "testcd": "WEIGHT",
     "test": "Weight",
     "visit": "BASELINE",
     "visitnum": 2,
     "dtc": "2024-03-11",
     "dy": 1,
     "res": "88.3",
     "num": 88.3,
     "unit": "kg",
     "blfl": "Y"
    },
    {
     "testcd": "DIABP",
     "test": "Diastolic Blood Pressure",
     "visit": "WEEK 4",
     "visitnum": 4,
     "dtc": "2024-04-07",
     "dy": 28,
     "res": "78",
     "num": 78,
     "unit": "mmHg",
     "blfl": ""
    },
    {
     "testcd": "PULSE",
     "test": "Pulse Rate",
     "visit": "WEEK 4",
     "visitnum": 4,
     "dtc": "2024-04-07",
     "dy": 28,
     "res": "66",
     "num": 66,
     "unit": "beats/min",
     "blfl": ""
    },
    {
     "testcd": "SYSBP",
     "test": "Systolic Blood Pressure",
     "visit": "WEEK 4",
     "visitnum": 4,
     "dtc": "2024-04-07",
     "dy": 28,
     "res": "122",
     "num": 122,
     "unit": "mmHg",
     "blfl": ""
    },
    {
     "testcd": "TEMP",
     "test": "Temperature",
     "visit": "WEEK 4",
     "visitnum": 4,
     "dtc": "2024-04-07",
     "dy": 28,
     "res": "36.6",
     "num": 36.6,
     "unit": "C",
     "blfl": ""
    },
    {
     "testcd": "WEIGHT",
     "test": "Weight",
     "visit": "WEEK 4",
     "visitnum": 4,
     "dtc": "2024-04-07",
     "dy": 28,
     "res": "87.9",
     "num": 87.9,
     "unit": "kg",
     "blfl": ""
    }
   ],
   "lb": [
    {
     "testcd": "ALT",
     "test": "Alanine Aminotransferase",
     "visit": "BASELINE",
     "visitnum": 2,
     "dtc": "2024-03-11",
     "dy": 1,
     "res": "30",
     "num": 30,
     "unit": "U/L",
     "blfl": "Y",
     "lo": 7,
     "hi": 56,
     "nrind": "NORMAL"
    },
    {
     "testcd": "CREAT",
     "test": "Creatinine",
     "visit": "BASELINE",
     "visitnum": 2,
     "dtc": "2024-03-11",
     "dy": 1,
     "res": "1.0",
     "num": 1,
     "unit": "mg/dL",
     "blfl": "Y",
     "lo": 0.6,
     "hi": 1.3,
     "nrind": "NORMAL"
    },
    {
     "testcd": "HCT",
     "test": "Hematocrit",
     "visit": "BASELINE",
     "visitnum": 2,
     "dtc": "2024-03-11",
     "dy": 1,
     "res": "41",
     "num": 41,
     "unit": "%",
     "blfl": "Y",
     "lo": 37,
     "hi": 50,
     "nrind": "NORMAL"
    },
    {
     "testcd": "HGB",
     "test": "Hemoglobin",
     "visit": "BASELINE",
     "visitnum": 2,
     "dtc": "2024-03-11",
     "dy": 1,
     "res": "13.9",
     "num": 13.9,
     "unit": "g/dL",
     "blfl": "Y",
     "lo": 12.0,
     "hi": 17.0,
     "nrind": "NORMAL"
    },
    {
     "testcd": "PLAT",
     "test": "Platelets",
     "visit": "BASELINE",
     "visitnum": 2,
     "dtc": "2024-03-11",
     "dy": 1,
     "res": "280",
     "num": 280,
     "unit": "10^9/L",
     "blfl": "Y",
     "lo": 150,
     "hi": 400,
     "nrind": "NORMAL"
    },
    {
     "testcd": "WBC",
     "test": "Leukocytes",
     "visit": "BASELINE",
     "visitnum": 2,
     "dtc": "2024-03-11",
     "dy": 1,
     "res": "8.0",
     "num": 8,
     "unit": "10^9/L",
     "blfl": "Y",
     "lo": 4.0,
     "hi": 11.0,
     "nrind": "NORMAL"
    },
    {
     "testcd": "ALT",
     "test": "Alanine Aminotransferase",
     "visit": "WEEK 4",
     "visitnum": 4,
     "dtc": "2024-04-07",
     "dy": 28,
     "res": "29",
     "num": 29,
     "unit": "U/L",
     "blfl": "",
     "lo": 7,
     "hi": 56,
     "nrind": "NORMAL"
    },
    {
     "testcd": "CREAT",
     "test": "Creatinine",
     "visit": "WEEK 4",
     "visitnum": 4,
     "dtc": "2024-04-07",
     "dy": 28,
     "res": "1.1",
     "num": 1.1,
     "unit": "mg/dL",
     "blfl": "",
     "lo": 0.6,
     "hi": 1.3,
     "nrind": "NORMAL"
    },
    {
     "testcd": "HCT",
     "test": "Hematocrit",
     "visit": "WEEK 4",
     "visitnum": 4,
     "dtc": "2024-04-07",
     "dy": 28,
     "res": "40",
     "num": 40,
     "unit": "%",
     "blfl": "",
     "lo": 37,
     "hi": 50,
     "nrind": "NORMAL"
    },
    {
     "testcd": "HGB",
     "test": "Hemoglobin",
     "visit": "WEEK 4",
     "visitnum": 4,
     "dtc": "2024-04-07",
     "dy": 28,
     "res": "13.7",
     "num": 13.7,
     "unit": "g/dL",
     "blfl": "",
     "lo": 12.0,
     "hi": 17.0,
     "nrind": "NORMAL"
    },
    {
     "testcd": "PLAT",
     "test": "Platelets",
     "visit": "WEEK 4",
     "visitnum": 4,
     "dtc": "2024-04-07",
     "dy": 28,
     "res": "275",
     "num": 275,
     "unit": "10^9/L",
     "blfl": "",
     "lo": 150,
     "hi": 400,
     "nrind": "NORMAL"
    },
    {
     "testcd": "WBC",
     "test": "Leukocytes",
     "visit": "WEEK 4",
     "visitnum": 4,
     "dtc": "2024-04-07",
     "dy": 28,
     "res": "8.3",
     "num": 8.3,
     "unit": "10^9/L",
     "blfl": "",
     "lo": 4.0,
     "hi": 11.0,
     "nrind": "NORMAL"
    }
   ]
  },
  {
   "usubjid": "ABC-01-02-002",
   "site": "02",
   "subjid": "002",
   "age": 43,
   "ageu": "YEARS",
   "sex": "F",
   "race": "ASIAN",
   "ethnic": "NOT HISPANIC OR LATINO",
   "country": "JPN",
   "arm": "Placebo",
   "armcd": "P",
   "actarm": "Placebo",
   "milestones": {
    "consent": "2024-03-02",
    "firstDose": "2024-03-12",
    "lastDose": "2024-04-08",
    "endPart": "2024-04-08",
    "death": ""
   },
   "disposition": {
    "decod": "COMPLETED",
    "term": "Completed study",
    "dtc": "2024-04-08",
    "dy": 28
   },
   "dayRange": {
    "min": -10,
    "max": 28
   },
   "dosing": [
    {
     "trt": "Placebo",
     "dose": 0,
     "unit": "mg",
     "freq": "QD",
     "route": "ORAL",
     "startDtc": "2024-03-12",
     "endDtc": "2024-04-08",
     "startDy": 1,
     "endDy": 28
    }
   ],
   "ae": [
    {
     "seq": "1",
     "term": "vomiting",
     "decod": "Vomiting",
     "sev": "MODERATE",
     "ser": "N",
     "rel": "RELATED",
     "out": "RECOVERING/RESOLVING",
     "startDtc": "2024-03-20",
     "endDtc": "2024-03-21",
     "startDy": 9,
     "endDy": 10,
     "trtem": "Y"
    }
   ],
   "cm": [
    {
     "trt": "Ondansetron",
     "decod": "ONDANSETRON",
     "indc": "vomiting",
     "dose": "4",
     "unit": "mg",
     "route": "ORAL",
     "startDtc": "2024-03-20",
     "endDtc": "2024-03-21",
     "startDy": 9,
     "endDy": 10
    }
   ],
   "visits": [
    {
     "visitnum": 1,
     "visit": "SCREENING",
     "dy": -10
    },
    {
     "visitnum": 2,
     "visit": "BASELINE",
     "dy": 1
    },
    {
     "visitnum": 4,
     "visit": "WEEK 4",
     "dy": 28
    }
   ],
   "vs": [
    {
     "testcd": "DIABP",
     "test": "Diastolic Blood Pressure",
     "visit": "SCREENING",
     "visitnum": 1,
     "dtc": "2024-03-02",
     "dy": -10,
     "res": "76",
     "num": 76,
     "unit": "mmHg",
     "blfl": ""
    },
    {
     "testcd": "HEIGHT",
     "test": "Height",
     "visit": "SCREENING",
     "visitnum": 1,
     "dtc": "2024-03-02",
     "dy": -10,
     "res": "158",
     "num": 158,
     "unit": "cm",
     "blfl": ""
    },
    {
     "testcd": "PULSE",
     "test": "Pulse Rate",
     "visit": "SCREENING",
     "visitnum": 1,
     "dtc": "2024-03-02",
     "dy": -10,
     "res": "74",
     "num": 74,
     "unit": "beats/min",
     "blfl": ""
    },
    {
     "testcd": "SYSBP",
     "test": "Systolic Blood Pressure",
     "visit": "SCREENING",
     "visitnum": 1,
     "dtc": "2024-03-02",
     "dy": -10,
     "res": "119",
     "num": 119,
     "unit": "mmHg",
     "blfl": ""
    },
    {
     "testcd": "TEMP",
     "test": "Temperature",
     "visit": "SCREENING",
     "visitnum": 1,
     "dtc": "2024-03-02",
     "dy": -10,
     "res": "36.8",
     "num": 36.8,
     "unit": "C",
     "blfl": ""
    },
    {
     "testcd": "WEIGHT",
     "test": "Weight",
     "visit": "SCREENING",
     "visitnum": 1,
     "dtc": "2024-03-02",
     "dy": -10,
     "res": "55.2",
     "num": 55.2,
     "unit": "kg",
     "blfl": ""
    },
    {
     "testcd": "DIABP",
     "test": "Diastolic Blood Pressure",
     "visit": "BASELINE",
     "visitnum": 2,
     "dtc": "2024-03-12",
     "dy": 1,
     "res": "78",
     "num": 78,
     "unit": "mmHg",
     "blfl": "Y"
    },
    {
     "testcd": "PULSE",
     "test": "Pulse Rate",
     "visit": "BASELINE",
     "visitnum": 2,
     "dtc": "2024-03-12",
     "dy": 1,
     "res": "72",
     "num": 72,
     "unit": "beats/min",
     "blfl": "Y"
    },
    {
     "testcd": "SYSBP",
     "test": "Systolic Blood Pressure",
     "visit": "BASELINE",
     "visitnum": 2,
     "dtc": "2024-03-12",
     "dy": 1,
     "res": "121",
     "num": 121,
     "unit": "mmHg",
     "blfl": "Y"
    },
    {
     "testcd": "TEMP",
     "test": "Temperature",
     "visit": "BASELINE",
     "visitnum": 2,
     "dtc": "2024-03-12",
     "dy": 1,
     "res": "36.9",
     "num": 36.9,
     "unit": "C",
     "blfl": "Y"
    },
    {
     "testcd": "WEIGHT",
     "test": "Weight",
     "visit": "BASELINE",
     "visitnum": 2,
     "dtc": "2024-03-12",
     "dy": 1,
     "res": "55.5",
     "num": 55.5,
     "unit": "kg",
     "blfl": "Y"
    },
    {
     "testcd": "DIABP",
     "test": "Diastolic Blood Pressure",
     "visit": "WEEK 4",
     "visitnum": 4,
     "dtc": "2024-04-08",
     "dy": 28,
     "res": "77",
     "num": 77,
     "unit": "mmHg",
     "blfl": ""
    },
    {
     "testcd": "PULSE",
     "test": "Pulse Rate",
     "visit": "WEEK 4",
     "visitnum": 4,
     "dtc": "2024-04-08",
     "dy": 28,
     "res": "70",
     "num": 70,
     "unit": "beats/min",
     "blfl": ""
    },
    {
     "testcd": "SYSBP",
     "test": "Systolic Blood Pressure",
     "visit": "WEEK 4",
     "visitnum": 4,
     "dtc": "2024-04-08",
     "dy": 28,
     "res": "120",
     "num": 120,
     "unit": "mmHg",
     "blfl": ""
    },
    {
     "testcd": "TEMP",
     "test": "Temperature",
     "visit": "WEEK 4",
     "visitnum": 4,
     "dtc": "2024-04-08",
     "dy": 28,
     "res": "36.7",
     "num": 36.7,
     "unit": "C",
     "blfl": ""
    },
    {
     "testcd": "WEIGHT",
     "test": "Weight",
     "visit": "WEEK 4",
     "visitnum": 4,
     "dtc": "2024-04-08",
     "dy": 28,
     "res": "55.0",
     "num": 55,
     "unit": "kg",
     "blfl": ""
    }
   ],
   "lb": []
  },
  {
   "usubjid": "ABC-01-02-003",
   "site": "02",
   "subjid": "003",
   "age": 57,
   "ageu": "YEARS",
   "sex": "F",
   "race": "WHITE",
   "ethnic": "NOT HISPANIC OR LATINO",
   "country": "USA",
   "arm": "Drug A",
   "armcd": "A",
   "actarm": "Drug A",
   "milestones": {
    "consent": "2024-03-04",
    "firstDose": "2024-03-14",
    "lastDose": "2024-04-10",
    "endPart": "2024-04-10",
    "death": ""
   },
   "disposition": {
    "decod": "COMPLETED",
    "term": "Completed study",
    "dtc": "2024-04-10",
    "dy": 28
   },
   "dayRange": {
    "min": -10,
    "max": 28
   },
   "dosing": [
    {
     "trt": "Drug A",
     "dose": 50,
     "unit": "mg",
     "freq": "QD",
     "route": "ORAL",
     "startDtc": "2024-03-14",
     "endDtc": "2024-04-10",
     "startDy": 1,
     "endDy": 28
    }
   ],
   "ae": [
    {
     "seq": "1",
     "term": "rash on both arms",
     "decod": "Rash",
     "sev": "MILD",
     "ser": "N",
     "rel": "RELATED",
     "out": "RECOVERED/RESOLVED",
     "startDtc": "2024-03-25",
     "endDtc": "2024-03-30",
     "startDy": 12,
     "endDy": 17,
     "trtem": "Y"
    }
   ],
   "cm": [
    {
     "trt": "Hydrocortisone cream",
     "decod": "HYDROCORTISONE",
     "indc": "rash",
     "dose": "1",
     "unit": "%",
     "route": "TOPICAL",
     "startDtc": "2024-03-25",
     "endDtc": "2024-03-30",
     "startDy": 12,
     "endDy": 17
    }
   ],
   "visits": [
    {
     "visitnum": 1,
     "visit": "SCREENING",
     "dy": -10
    },
    {
     "visitnum": 2,
     "visit": "BASELINE",
     "dy": 1
    },
    {
     "visitnum": 4,
     "visit": "WEEK 4",
     "dy": 28
    }
   ],
   "vs": [
    {
     "testcd": "DIABP",
     "test": "Diastolic Blood Pressure",
     "visit": "SCREENING",
     "visitnum": 1,
     "dtc": "2024-03-04",
     "dy": -10,
     "res": "84",
     "num": 84,
     "unit": "mmHg",
     "blfl": ""
    },
    {
     "testcd": "HEIGHT",
     "test": "Height",
     "visit": "SCREENING",
     "visitnum": 1,
     "dtc": "2024-03-04",
     "dy": -10,
     "res": "170",
     "num": 170,
     "unit": "cm",
     "blfl": ""
    },
    {
     "testcd": "PULSE",
     "test": "Pulse Rate",
     "visit": "SCREENING",
     "visitnum": 1,
     "dtc": "2024-03-04",
     "dy": -10,
     "res": "76",
     "num": 76,
     "unit": "beats/min",
     "blfl": ""
    },
    {
     "testcd": "SYSBP",
     "test": "Systolic Blood Pressure",
     "visit": "SCREENING",
     "visitnum": 1,
     "dtc": "2024-03-04",
     "dy": -10,
     "res": "128",
     "num": 128,
     "unit": "mmHg",
     "blfl": ""
    },
    {
     "testcd": "TEMP",
     "test": "Temperature",
     "visit": "SCREENING",
     "visitnum": 1,
     "dtc": "2024-03-04",
     "dy": -10,
     "res": "37.1",
     "num": 37.1,
     "unit": "C",
     "blfl": ""
    },
    {
     "testcd": "WEIGHT",
     "test": "Weight",
     "visit": "SCREENING",
     "visitnum": 1,
     "dtc": "2024-03-04",
     "dy": -10,
     "res": "72.4",
     "num": 72.4,
     "unit": "kg",
     "blfl": ""
    },
    {
     "testcd": "DIABP",
     "test": "Diastolic Blood Pressure",
     "visit": "BASELINE",
     "visitnum": 2,
     "dtc": "2024-03-14",
     "dy": 1,
     "res": "83",
     "num": 83,
     "unit": "mmHg",
     "blfl": "Y"
    },
    {
     "testcd": "PULSE",
     "test": "Pulse Rate",
     "visit": "BASELINE",
     "visitnum": 2,
     "dtc": "2024-03-14",
     "dy": 1,
     "res": "74",
     "num": 74,
     "unit": "beats/min",
     "blfl": "Y"
    },
    {
     "testcd": "SYSBP",
     "test": "Systolic Blood Pressure",
     "visit": "BASELINE",
     "visitnum": 2,
     "dtc": "2024-03-14",
     "dy": 1,
     "res": "127",
     "num": 127,
     "unit": "mmHg",
     "blfl": "Y"
    },
    {
     "testcd": "TEMP",
     "test": "Temperature",
     "visit": "BASELINE",
     "visitnum": 2,
     "dtc": "2024-03-14",
     "dy": 1,
     "res": "37.0",
     "num": 37,
     "unit": "C",
     "blfl": "Y"
    },
    {
     "testcd": "WEIGHT",
     "test": "Weight",
     "visit": "BASELINE",
     "visitnum": 2,
     "dtc": "2024-03-14",
     "dy": 1,
     "res": "72.0",
     "num": 72,
     "unit": "kg",
     "blfl": "Y"
    },
    {
     "testcd": "DIABP",
     "test": "Diastolic Blood Pressure",
     "visit": "WEEK 4",
     "visitnum": 4,
     "dtc": "2024-04-10",
     "dy": 28,
     "res": "80",
     "num": 80,
     "unit": "mmHg",
     "blfl": ""
    },
    {
     "testcd": "PULSE",
     "test": "Pulse Rate",
     "visit": "WEEK 4",
     "visitnum": 4,
     "dtc": "2024-04-10",
     "dy": 28,
     "res": "72",
     "num": 72,
     "unit": "beats/min",
     "blfl": ""
    },
    {
     "testcd": "SYSBP",
     "test": "Systolic Blood Pressure",
     "visit": "WEEK 4",
     "visitnum": 4,
     "dtc": "2024-04-10",
     "dy": 28,
     "res": "125",
     "num": 125,
     "unit": "mmHg",
     "blfl": ""
    },
    {
     "testcd": "TEMP",
     "test": "Temperature",
     "visit": "WEEK 4",
     "visitnum": 4,
     "dtc": "2024-04-10",
     "dy": 28,
     "res": "36.8",
     "num": 36.8,
     "unit": "C",
     "blfl": ""
    },
    {
     "testcd": "WEIGHT",
     "test": "Weight",
     "visit": "WEEK 4",
     "visitnum": 4,
     "dtc": "2024-04-10",
     "dy": 28,
     "res": "71.6",
     "num": 71.6,
     "unit": "kg",
     "blfl": ""
    }
   ],
   "lb": []
  },
  {
   "usubjid": "ABC-01-02-004",
   "site": "02",
   "subjid": "004",
   "age": 68,
   "ageu": "YEARS",
   "sex": "M",
   "race": "BLACK OR AFRICAN AMERICAN",
   "ethnic": "UNKNOWN",
   "country": "USA",
   "arm": "Placebo",
   "armcd": "P",
   "actarm": "Placebo",
   "milestones": {
    "consent": "2024-03-05",
    "firstDose": "2024-03-15",
    "lastDose": "2024-04-11",
    "endPart": "2024-04-11",
    "death": ""
   },
   "disposition": {
    "decod": "COMPLETED",
    "term": "Completed study",
    "dtc": "2024-04-11",
    "dy": 28
   },
   "dayRange": {
    "min": -96,
    "max": 28
   },
   "dosing": [
    {
     "trt": "Placebo",
     "dose": 0,
     "unit": "mg",
     "freq": "QD",
     "route": "ORAL",
     "startDtc": "2024-03-15",
     "endDtc": "2024-04-11",
     "startDy": 1,
     "endDy": 28
    }
   ],
   "ae": [],
   "cm": [
    {
     "trt": "Metformin",
     "decod": "METFORMIN",
     "indc": "type 2 diabetes",
     "dose": "500",
     "unit": "mg",
     "route": "ORAL",
     "startDtc": "2023-12-10",
     "endDtc": "",
     "startDy": -96,
     "endDy": null
    }
   ],
   "visits": [
    {
     "visitnum": 1,
     "visit": "SCREENING",
     "dy": -10
    },
    {
     "visitnum": 2,
     "visit": "BASELINE",
     "dy": 1
    },
    {
     "visitnum": 4,
     "visit": "WEEK 4",
     "dy": 28
    }
   ],
   "vs": [
    {
     "testcd": "DIABP",
     "test": "Diastolic Blood Pressure",
     "visit": "SCREENING",
     "visitnum": 1,
     "dtc": "2024-03-05",
     "dy": -10,
     "res": "88",
     "num": 88,
     "unit": "mmHg",
     "blfl": ""
    },
    {
     "testcd": "HEIGHT",
     "test": "Height",
     "visit": "SCREENING",
     "visitnum": 1,
     "dtc": "2024-03-05",
     "dy": -10,
     "res": "168",
     "num": 168,
     "unit": "cm",
     "blfl": ""
    },
    {
     "testcd": "PULSE",
     "test": "Pulse Rate",
     "visit": "SCREENING",
     "visitnum": 1,
     "dtc": "2024-03-05",
     "dy": -10,
     "res": "80",
     "num": 80,
     "unit": "beats/min",
     "blfl": ""
    },
    {
     "testcd": "SYSBP",
     "test": "Systolic Blood Pressure",
     "visit": "SCREENING",
     "visitnum": 1,
     "dtc": "2024-03-05",
     "dy": -10,
     "res": "136",
     "num": 136,
     "unit": "mmHg",
     "blfl": ""
    },
    {
     "testcd": "TEMP",
     "test": "Temperature",
     "visit": "SCREENING",
     "visitnum": 1,
     "dtc": "2024-03-05",
     "dy": -10,
     "res": "36.9",
     "num": 36.9,
     "unit": "C",
     "blfl": ""
    },
    {
     "testcd": "WEIGHT",
     "test": "Weight",
     "visit": "SCREENING",
     "visitnum": 1,
     "dtc": "2024-03-05",
     "dy": -10,
     "res": "79.9",
     "num": 79.9,
     "unit": "kg",
     "blfl": ""
    },
    {
     "testcd": "DIABP",
     "test": "Diastolic Blood Pressure",
     "visit": "BASELINE",
     "visitnum": 2,
     "dtc": "2024-03-15",
     "dy": 1,
     "res": "90",
     "num": 90,
     "unit": "mmHg",
     "blfl": "Y"
    },
    {
     "testcd": "PULSE",
     "test": "Pulse Rate",
     "visit": "BASELINE",
     "visitnum": 2,
     "dtc": "2024-03-15",
     "dy": 1,
     "res": "82",
     "num": 82,
     "unit": "beats/min",
     "blfl": "Y"
    },
    {
     "testcd": "SYSBP",
     "test": "Systolic Blood Pressure",
     "visit": "BASELINE",
     "visitnum": 2,
     "dtc": "2024-03-15",
     "dy": 1,
     "res": "138",
     "num": 138,
     "unit": "mmHg",
     "blfl": "Y"
    },
    {
     "testcd": "TEMP",
     "test": "Temperature",
     "visit": "BASELINE",
     "visitnum": 2,
     "dtc": "2024-03-15",
     "dy": 1,
     "res": "37.0",
     "num": 37,
     "unit": "C",
     "blfl": "Y"
    },
    {
     "testcd": "WEIGHT",
     "test": "Weight",
     "visit": "BASELINE",
     "visitnum": 2,
     "dtc": "2024-03-15",
     "dy": 1,
     "res": "80.2",
     "num": 80.2,
     "unit": "kg",
     "blfl": "Y"
    },
    {
     "testcd": "DIABP",
     "test": "Diastolic Blood Pressure",
     "visit": "WEEK 4",
     "visitnum": 4,
     "dtc": "2024-04-11",
     "dy": 28,
     "res": "86",
     "num": 86,
     "unit": "mmHg",
     "blfl": ""
    },
    {
     "testcd": "PULSE",
     "test": "Pulse Rate",
     "visit": "WEEK 4",
     "visitnum": 4,
     "dtc": "2024-04-11",
     "dy": 28,
     "res": "78",
     "num": 78,
     "unit": "beats/min",
     "blfl": ""
    },
    {
     "testcd": "SYSBP",
     "test": "Systolic Blood Pressure",
     "visit": "WEEK 4",
     "visitnum": 4,
     "dtc": "2024-04-11",
     "dy": 28,
     "res": "135",
     "num": 135,
     "unit": "mmHg",
     "blfl": ""
    },
    {
     "testcd": "TEMP",
     "test": "Temperature",
     "visit": "WEEK 4",
     "visitnum": 4,
     "dtc": "2024-04-11",
     "dy": 28,
     "res": "36.8",
     "num": 36.8,
     "unit": "C",
     "blfl": ""
    },
    {
     "testcd": "WEIGHT",
     "test": "Weight",
     "visit": "WEEK 4",
     "visitnum": 4,
     "dtc": "2024-04-11",
     "dy": 28,
     "res": "79.5",
     "num": 79.5,
     "unit": "kg",
     "blfl": ""
    }
   ],
   "lb": []
  }
 ]
}