STUDYID,DOMAIN,USUBJID,SUBJID,RFSTDTC,RFENDTC,RFXSTDTC,RFXENDTC,RFICDTC,RFPENDTC,DTHDTC,DTHFL,SITEID,AGE,AGEU,SEX,RACE,ETHNIC,ARMCD,ARM,ACTARMCD,ACTARM,COUNTRY
ABC-01,DM,ABC-01-01-001,001,2024-03-01,2024-03-28,2024-03-01,2024-03-28,2024-02-20,2024-03-28,,,01,54,YEARS,F,WHITE,NOT HISPANIC OR LATINO,A,Drug A,A,Drug A,USA
ABC-01,DM,ABC-01-01-002,002,2024-03-04,2024-03-31,2024-03-04,2024-03-31,2024-02-22,2024-03-31,,,01,60,YEARS,M,ASIAN,NOT HISPANIC OR LATINO,P,Placebo,P,Placebo,JPN
ABC-01,DM,ABC-01-01-003,003,2024-03-05,2024-04-01,2024-03-05,2024-04-01,2024-02-25,2024-04-01,,,01,46,YEARS,F,BLACK OR AFRICAN AMERICAN,NOT HISPANIC OR LATINO,A,Drug A,A,Drug A,USA
ABC-01,DM,ABC-01-01-004,004,2024-03-06,2024-03-25,2024-03-06,2024-03-25,2024-02-26,2024-03-25,,,01,66,YEARS,M,WHITE,HISPANIC OR LATINO,P,Placebo,P,Placebo,USA
ABC-01,DM,ABC-01-02-001,001,2024-03-11,2024-04-07,2024-03-11,2024-04-07,2024-03-01,2024-04-07,,,02,51,YEARS,M,WHITE,NOT HISPANIC OR LATINO,A,Drug A,A,Drug A,GBR
ABC-01,DM,ABC-01-02-002,002,2024-03-12,2024-04-08,2024-03-12,2024-04-08,2024-03-02,2024-04-08,,,02,43,YEARS,F,ASIAN,NOT HISPANIC OR LATINO,P,Placebo,P,Placebo,JPN
ABC-01,DM,ABC-01-02-003,003,2024-03-14,2024-04-10,2024-03-14,2024-04-10,2024-03-04,2024-04-10,,,02,57,YEARS,F,WHITE,NOT HISPANIC OR LATINO,A,Drug A,A,Drug A,USA
ABC-01,DM,ABC-01-02-004,004,2024-03-15,2024-04-11,2024-03-15,2024-04-11,2024-03-05,2024-04-11,,,02,68,YEARS,M,BLACK OR AFRICAN AMERICAN,UNKNOWN,P,Placebo,P,Placebo,USA
