<?xml version="1.0" encoding="UTF-8"?>
<?xml-stylesheet type="text/xsl" href="define2-0-0.xsl"?>
<ODM xmlns="http://www.cdisc.org/ns/odm/v1.3" xmlns:def="http://www.cdisc.org/ns/def/v2.0" xmlns:xlink="http://www.w3.org/1999/xlink" xmlns:xsi="http://www.w3.org/2001/XMLSchema-instance" xsi:schemaLocation="http://www.cdisc.org/ns/odm/v1.3 define2-0-0.xsd" def:Context="Submission" FileOID="ABC-01-define" FileType="Snapshot" ODMVersion="1.3.2" CreationDateTime="2026-07-20T00:00:00" Originator="Clinical Programming Bootcamp (synthetic training data)">
  <Study OID="STD.ABC-01">
    <GlobalVariables>
      <StudyName>ABC-01</StudyName>
      <StudyDescription>Synthetic training study. Randomised, double-blind, placebo-controlled, 8 subjects at 2 sites, 4 weeks of treatment.</StudyDescription>
      <ProtocolName>ABC-01</ProtocolName>
    </GlobalVariables>
    <MetaDataVersion OID="MDV.1" Name="ABC-01 SDTM 3.3" Description="SDTM-IG 3.3" def:DefineVersion="2.0.0" def:StandardName="SDTM-IG" def:StandardVersion="3.3">
      <def:AnnotatedCRF>
        <def:DocumentRef leafID="LF.acrf"/>
      </def:AnnotatedCRF>
      <def:leaf ID="LF.acrf" xlink:href="../acrf.pdf">
        <def:title>Annotated Case Report Form</def:title>
      </def:leaf>
      <ItemGroupDef OID="IG.AE" Name="AE" Repeating="Yes" IsReferenceData="No" SASDatasetName="AE" Domain="AE" Purpose="Tabulation" def:Structure="One record per adverse event per subject" def:Class="Events" def:ArchiveLocationID="LF.AE">
        <Description>
          <TranslatedText xml:lang="en">Adverse Events</TranslatedText>
        </Description>
        <ItemRef ItemOID="IT.AE.STUDYID" OrderNumber="1" Mandatory="Yes" KeySequence="1"/>
        <ItemRef ItemOID="IT.AE.DOMAIN" OrderNumber="2" Mandatory="Yes"/>
        <ItemRef ItemOID="IT.AE.USUBJID" OrderNumber="3" Mandatory="Yes" KeySequence="2" def:MethodOID="MT.AE.USUBJID"/>
        <ItemRef ItemOID="IT.AE.AESEQ" OrderNumber="4" Mandatory="Yes" KeySequence="3"/>
        <ItemRef ItemOID="IT.AE.AETERM" OrderNumber="5" Mandatory="Yes"/>
        <ItemRef ItemOID="IT.AE.AEDECOD" OrderNumber="6" Mandatory="Yes" def:MethodOID="MT.AE.AEDECOD"/>
        <ItemRef ItemOID="IT.AE.AESEV" OrderNumber="7" Mandatory="No"/>
        <ItemRef ItemOID="IT.AE.AESER" OrderNumber="8" Mandatory="No"/>
        <ItemRef ItemOID="IT.AE.AEREL" OrderNumber="9" Mandatory="No"/>
        <ItemRef ItemOID="IT.AE.AEOUT" OrderNumber="10" Mandatory="No"/>
        <ItemRef ItemOID="IT.AE.AESTDTC" OrderNumber="11" Mandatory="No"/>
        <ItemRef ItemOID="IT.AE.AEENDTC" OrderNumber="12" Mandatory="No"/>
        <ItemRef ItemOID="IT.AE.AESTDY" OrderNumber="13" Mandatory="No"/>
        <ItemRef ItemOID="IT.AE.AEENDY" OrderNumber="14" Mandatory="No"/>
      </ItemGroupDef>
      <def:leaf ID="LF.AE" xlink:href="ae.xpt">
        <def:title>ae.xpt</def:title>
      </def:leaf>
      <ItemGroupDef OID="IG.CM" Name="CM" Repeating="Yes" IsReferenceData="No" SASDatasetName="CM" Domain="CM" Purpose="Tabulation" def:Structure="One record per medication per subject" def:Class="Interventions" def:ArchiveLocationID="LF.CM">
        <Description>
          <TranslatedText xml:lang="en">Concomitant Medications</TranslatedText>
        </Description>
        <ItemRef ItemOID="IT.CM.STUDYID" OrderNumber="1" Mandatory="Yes" KeySequence="1"/>
        <ItemRef ItemOID="IT.CM.DOMAIN" OrderNumber="2" Mandatory="Yes"/>
        <ItemRef ItemOID="IT.CM.USUBJID" OrderNumber="3" Mandatory="Yes" KeySequence="2" def:MethodOID="MT.CM.USUBJID"/>
        <ItemRef ItemOID="IT.CM.CMSEQ" OrderNumber="4" Mandatory="Yes" KeySequence="3"/>
        <ItemRef ItemOID="IT.CM.CMTRT" OrderNumber="5" Mandatory="Yes"/>
        <ItemRef ItemOID="IT.CM.CMDECOD" OrderNumber="6" Mandatory="No" def:MethodOID="MT.CM.CMDECOD"/>
        <ItemRef ItemOID="IT.CM.CMINDC" OrderNumber="7" Mandatory="No"/>
        <ItemRef ItemOID="IT.CM.CMDOSE" OrderNumber="8" Mandatory="No"/>
        <ItemRef ItemOID="IT.CM.CMDOSU" OrderNumber="9" Mandatory="No"/>
        <ItemRef ItemOID="IT.CM.CMDOSFRQ" OrderNumber="10" Mandatory="No"/>
        <ItemRef ItemOID="IT.CM.CMROUTE" OrderNumber="11" Mandatory="No"/>
        <ItemRef ItemOID="IT.CM.CMSTDTC" OrderNumber="12" Mandatory="No"/>
        <ItemRef ItemOID="IT.CM.CMENDTC" OrderNumber="13" Mandatory="No"/>
        <ItemRef ItemOID="IT.CM.CMSTDY" OrderNumber="14" Mandatory="No"/>
        <ItemRef ItemOID="IT.CM.CMENDY" OrderNumber="15" Mandatory="No"/>
      </ItemGroupDef>
      <def:leaf ID="LF.CM" xlink:href="cm.xpt">
        <def:title>cm.xpt</def:title>
      </def:leaf>
      <ItemGroupDef OID="IG.DM" Name="DM" Repeating="No" IsReferenceData="No" SASDatasetName="DM" Domain="DM" Purpose="Tabulation" def:Structure="One record per subject" def:Class="Special Purpose" def:ArchiveLocationID="LF.DM">
        <Description>
          <TranslatedText xml:lang="en">Demographics</TranslatedText>
        </Description>
        <ItemRef ItemOID="IT.DM.STUDYID" OrderNumber="1" Mandatory="Yes" KeySequence="1"/>
        <ItemRef ItemOID="IT.DM.DOMAIN" OrderNumber="2" Mandatory="Yes"/>
        <ItemRef ItemOID="IT.DM.USUBJID" OrderNumber="3" Mandatory="Yes" KeySequence="2" def:MethodOID="MT.DM.USUBJID"/>
        <ItemRef ItemOID="IT.DM.SUBJID" OrderNumber="4" Mandatory="Yes"/>
        <ItemRef ItemOID="IT.DM.RFSTDTC" OrderNumber="5" Mandatory="No" def:MethodOID="MT.DM.RFSTDTC"/>
        <ItemRef ItemOID="IT.DM.RFENDTC" OrderNumber="6" Mandatory="No" def:MethodOID="MT.DM.RFENDTC"/>
        <ItemRef ItemOID="IT.DM.RFXSTDTC" OrderNumber="7" Mandatory="No" def:MethodOID="MT.DM.RFXSTDTC"/>
        <ItemRef ItemOID="IT.DM.RFXENDTC" OrderNumber="8" Mandatory="No" def:MethodOID="MT.DM.RFXENDTC"/>
        <ItemRef ItemOID="IT.DM.RFICDTC" OrderNumber="9" Mandatory="No"/>
        <ItemRef ItemOID="IT.DM.RFPENDTC" OrderNumber="10" Mandatory="No"/>
        <ItemRef ItemOID="IT.DM.DTHDTC" OrderNumber="11" Mandatory="No"/>
        <ItemRef ItemOID="IT.DM.DTHFL" OrderNumber="12" Mandatory="No"/>
        <ItemRef ItemOID="IT.DM.SITEID" OrderNumber="13" Mandatory="Yes"/>
        <ItemRef ItemOID="IT.DM.AGE" OrderNumber="14" Mandatory="No" def:MethodOID="MT.DM.AGE"/>
        <ItemRef ItemOID="IT.DM.AGEU" OrderNumber="15" Mandatory="No"/>
        <ItemRef ItemOID="IT.DM.SEX" OrderNumber="16" Mandatory="Yes"/>
        <ItemRef ItemOID="IT.DM.RACE" OrderNumber="17" Mandatory="No"/>
        <ItemRef ItemOID="IT.DM.ETHNIC" OrderNumber="18" Mandatory="No"/>
        <ItemRef ItemOID="IT.DM.ARMCD" OrderNumber="19" Mandatory="Yes" def:MethodOID="MT.DM.ARMCD"/>
        <ItemRef ItemOID="IT.DM.ARM" OrderNumber="20" Mandatory="Yes"/>
        <ItemRef ItemOID="IT.DM.ACTARMCD" OrderNumber="21" Mandatory="Yes" def:MethodOID="MT.DM.ACTARMCD"/>
        <ItemRef ItemOID="IT.DM.ACTARM" OrderNumber="22" Mandatory="Yes" def:MethodOID="MT.DM.ACTARM"/>
        <ItemRef ItemOID="IT.DM.COUNTRY" OrderNumber="23" Mandatory="Yes"/>
      </ItemGroupDef>
      <def:leaf ID="LF.DM" xlink:href="dm.xpt">
        <def:title>dm.xpt</def:title>
      </def:leaf>
      <ItemGroupDef OID="IG.DS" Name="DS" Repeating="Yes" IsReferenceData="No" SASDatasetName="DS" Domain="DS" Purpose="Tabulation" def:Structure="One record per disposition event per subject" def:Class="Events" def:ArchiveLocationID="LF.DS">
        <Description>
          <TranslatedText xml:lang="en">Disposition</TranslatedText>
        </Description>
        <ItemRef ItemOID="IT.DS.STUDYID" OrderNumber="1" Mandatory="Yes" KeySequence="1"/>
        <ItemRef ItemOID="IT.DS.DOMAIN" OrderNumber="2" Mandatory="Yes"/>
        <ItemRef ItemOID="IT.DS.USUBJID" OrderNumber="3" Mandatory="Yes" KeySequence="2" def:MethodOID="MT.DS.USUBJID"/>
        <ItemRef ItemOID="IT.DS.DSSEQ" OrderNumber="4" Mandatory="Yes" KeySequence="3"/>
        <ItemRef ItemOID="IT.DS.DSTERM" OrderNumber="5" Mandatory="Yes"/>
        <ItemRef ItemOID="IT.DS.DSDECOD" OrderNumber="6" Mandatory="Yes" def:MethodOID="MT.DS.DSDECOD"/>
        <ItemRef ItemOID="IT.DS.DSCAT" OrderNumber="7" Mandatory="No"/>
        <ItemRef ItemOID="IT.DS.DSSTDTC" OrderNumber="8" Mandatory="No"/>
        <ItemRef ItemOID="IT.DS.DSSTDY" OrderNumber="9" Mandatory="No"/>
      </ItemGroupDef>
      <def:leaf ID="LF.DS" xlink:href="ds.xpt">
        <def:title>ds.xpt</def:title>
      </def:leaf>
      <ItemGroupDef OID="IG.EX" Name="EX" Repeating="Yes" IsReferenceData="No" SASDatasetName="EX" Domain="EX" Purpose="Tabulation" def:Structure="One record per dosing period per subject" def:Class="Interventions" def:ArchiveLocationID="LF.EX">
        <Description>
          <TranslatedText xml:lang="en">Exposure</TranslatedText>
        </Description>
        <ItemRef ItemOID="IT.EX.STUDYID" OrderNumber="1" Mandatory="Yes" KeySequence="1"/>
        <ItemRef ItemOID="IT.EX.DOMAIN" OrderNumber="2" Mandatory="Yes"/>
        <ItemRef ItemOID="IT.EX.USUBJID" OrderNumber="3" Mandatory="Yes" KeySequence="2" def:MethodOID="MT.EX.USUBJID"/>
        <ItemRef ItemOID="IT.EX.EXSEQ" OrderNumber="4" Mandatory="Yes" KeySequence="3"/>
        <ItemRef ItemOID="IT.EX.EXTRT" OrderNumber="5" Mandatory="Yes"/>
        <ItemRef ItemOID="IT.EX.EXDOSE" OrderNumber="6" Mandatory="No"/>
        <ItemRef ItemOID="IT.EX.EXDOSU" OrderNumber="7" Mandatory="No"/>
        <ItemRef ItemOID="IT.EX.EXDOSFRQ" OrderNumber="8" Mandatory="No"/>
        <ItemRef ItemOID="IT.EX.EXROUTE" OrderNumber="9" Mandatory="No"/>
        <ItemRef ItemOID="IT.EX.EXSTDTC" OrderNumber="10" Mandatory="No"/>
        <ItemRef ItemOID="IT.EX.EXENDTC" OrderNumber="11" Mandatory="No"/>
        <ItemRef ItemOID="IT.EX.EXSTDY" OrderNumber="12" Mandatory="No"/>
        <ItemRef ItemOID="IT.EX.EXENDY" OrderNumber="13" Mandatory="No"/>
      </ItemGroupDef>
      <def:leaf ID="LF.EX" xlink:href="ex.xpt">
        <def:title>ex.xpt</def:title>
      </def:leaf>
      <ItemGroupDef OID="IG.LB" Name="LB" Repeating="Yes" IsReferenceData="No" SASDatasetName="LB" Domain="LB" Purpose="Tabulation" def:Structure="One record per test per visit per subject" def:Class="Findings" def:ArchiveLocationID="LF.LB">
        <Description>
          <TranslatedText xml:lang="en">Laboratory Test Results</TranslatedText>
        </Description>
        <ItemRef ItemOID="IT.LB.STUDYID" OrderNumber="1" Mandatory="Yes" KeySequence="1"/>
        <ItemRef ItemOID="IT.LB.DOMAIN" OrderNumber="2" Mandatory="Yes"/>
        <ItemRef ItemOID="IT.LB.USUBJID" OrderNumber="3" Mandatory="Yes" KeySequence="2" def:MethodOID="MT.LB.USUBJID"/>
        <ItemRef ItemOID="IT.LB.LBSEQ" OrderNumber="4" Mandatory="Yes" KeySequence="3"/>
        <ItemRef ItemOID="IT.LB.LBTESTCD" OrderNumber="5" Mandatory="Yes" def:MethodOID="MT.LB.LBTESTCD"/>
        <ItemRef ItemOID="IT.LB.LBTEST" OrderNumber="6" Mandatory="Yes" def:MethodOID="MT.LB.LBTEST"/>
        <ItemRef ItemOID="IT.LB.LBCAT" OrderNumber="7" Mandatory="No" def:MethodOID="MT.LB.LBCAT"/>
        <ItemRef ItemOID="IT.LB.LBORRES" OrderNumber="8" Mandatory="No"/>
        <ItemRef ItemOID="IT.LB.LBORRESU" OrderNumber="9" Mandatory="No"/>
        <ItemRef ItemOID="IT.LB.LBORNRLO" OrderNumber="10" Mandatory="No"/>
        <ItemRef ItemOID="IT.LB.LBORNRHI" OrderNumber="11" Mandatory="No"/>
        <ItemRef ItemOID="IT.LB.LBSTRESC" OrderNumber="12" Mandatory="No"/>
        <ItemRef ItemOID="IT.LB.LBSTRESN" OrderNumber="13" Mandatory="No"/>
        <ItemRef ItemOID="IT.LB.LBSTRESU" OrderNumber="14" Mandatory="No"/>
        <ItemRef ItemOID="IT.LB.LBSTNRLO" OrderNumber="15" Mandatory="No"/>
        <ItemRef ItemOID="IT.LB.LBSTNRHI" OrderNumber="16" Mandatory="No"/>
        <ItemRef ItemOID="IT.LB.LBNRIND" OrderNumber="17" Mandatory="No"/>
        <ItemRef ItemOID="IT.LB.LBBLFL" OrderNumber="18" Mandatory="No" def:MethodOID="MT.LB.LBBLFL"/>
        <ItemRef ItemOID="IT.LB.VISITNUM" OrderNumber="19" Mandatory="No" def:MethodOID="MT.LB.VISITNUM"/>
        <ItemRef ItemOID="IT.LB.VISIT" OrderNumber="20" Mandatory="No"/>
        <ItemRef ItemOID="IT.LB.LBDTC" OrderNumber="21" Mandatory="No"/>
        <ItemRef ItemOID="IT.LB.LBDY" OrderNumber="22" Mandatory="No"/>
      </ItemGroupDef>
      <def:leaf ID="LF.LB" xlink:href="lb.xpt">
        <def:title>lb.xpt</def:title>
      </def:leaf>
      <ItemGroupDef OID="IG.SUPPAE" Name="SUPPAE" Repeating="Yes" IsReferenceData="No" SASDatasetName="SUPPAE" Domain="SUPPAE" Purpose="Tabulation" def:Structure="One record per supplemental qualifier per parent record" def:Class="Relationship" def:ArchiveLocationID="LF.SUPPAE">
        <Description>
          <TranslatedText xml:lang="en">Supplemental Qualifiers for AE</TranslatedText>
        </Description>
        <ItemRef ItemOID="IT.SUPPAE.STUDYID" OrderNumber="1" Mandatory="Yes" KeySequence="1"/>
        <ItemRef ItemOID="IT.SUPPAE.RDOMAIN" OrderNumber="2" Mandatory="Yes" KeySequence="2"/>
        <ItemRef ItemOID="IT.SUPPAE.USUBJID" OrderNumber="3" Mandatory="Yes" KeySequence="3" def:MethodOID="MT.SUPPAE.USUBJID"/>
        <ItemRef ItemOID="IT.SUPPAE.IDVAR" OrderNumber="4" Mandatory="No" KeySequence="4"/>
        <ItemRef ItemOID="IT.SUPPAE.IDVARVAL" OrderNumber="5" Mandatory="No" KeySequence="5" def:MethodOID="MT.SUPPAE.IDVARVAL"/>
        <ItemRef ItemOID="IT.SUPPAE.QNAM" OrderNumber="6" Mandatory="Yes" KeySequence="6"/>
        <ItemRef ItemOID="IT.SUPPAE.QLABEL" OrderNumber="7" Mandatory="No"/>
        <ItemRef ItemOID="IT.SUPPAE.QVAL" OrderNumber="8" Mandatory="Yes" def:MethodOID="MT.SUPPAE.QVAL"/>
        <ItemRef ItemOID="IT.SUPPAE.QORIG" OrderNumber="9" Mandatory="No"/>
        <ItemRef ItemOID="IT.SUPPAE.QEVAL" OrderNumber="10" Mandatory="No"/>
      </ItemGroupDef>
      <def:leaf ID="LF.SUPPAE" xlink:href="suppae.xpt">
        <def:title>suppae.xpt</def:title>
      </def:leaf>
      <ItemGroupDef OID="IG.VS" Name="VS" Repeating="Yes" IsReferenceData="No" SASDatasetName="VS" Domain="VS" Purpose="Tabulation" def:Structure="One record per test per visit per subject" def:Class="Findings" def:ArchiveLocationID="LF.VS">
        <Description>
          <TranslatedText xml:lang="en">Vital Signs</TranslatedText>
        </Description>
        <ItemRef ItemOID="IT.VS.STUDYID" OrderNumber="1" Mandatory="Yes" KeySequence="1"/>
        <ItemRef ItemOID="IT.VS.DOMAIN" OrderNumber="2" Mandatory="Yes"/>
        <ItemRef ItemOID="IT.VS.USUBJID" OrderNumber="3" Mandatory="Yes" KeySequence="2" def:MethodOID="MT.VS.USUBJID"/>
        <ItemRef ItemOID="IT.VS.VSSEQ" OrderNumber="4" Mandatory="Yes" KeySequence="3"/>
        <ItemRef ItemOID="IT.VS.VSTESTCD" OrderNumber="5" Mandatory="Yes" def:MethodOID="MT.VS.VSTESTCD"/>
        <ItemRef ItemOID="IT.VS.VSTEST" OrderNumber="6" Mandatory="Yes" def:MethodOID="MT.VS.VSTEST"/>
        <ItemRef ItemOID="IT.VS.VSORRES" OrderNumber="7" Mandatory="No"/>
        <ItemRef ItemOID="IT.VS.VSORRESU" OrderNumber="8" Mandatory="No"/>
        <ItemRef ItemOID="IT.VS.VSSTRESC" OrderNumber="9" Mandatory="No"/>
        <ItemRef ItemOID="IT.VS.VSSTRESN" OrderNumber="10" Mandatory="No"/>
        <ItemRef ItemOID="IT.VS.VSSTRESU" OrderNumber="11" Mandatory="No"/>
        <ItemRef ItemOID="IT.VS.VSBLFL" OrderNumber="12" Mandatory="No" def:MethodOID="MT.VS.VSBLFL"/>
        <ItemRef ItemOID="IT.VS.VISITNUM" OrderNumber="13" Mandatory="No" def:MethodOID="MT.VS.VISITNUM"/>
        <ItemRef ItemOID="IT.VS.VISIT" OrderNumber="14" Mandatory="No"/>
        <ItemRef ItemOID="IT.VS.VSDTC" OrderNumber="15" Mandatory="No"/>
        <ItemRef ItemOID="IT.VS.VSDY" OrderNumber="16" Mandatory="No"/>
      </ItemGroupDef>
      <def:leaf ID="LF.VS" xlink:href="vs.xpt">
        <def:title>vs.xpt</def:title>
      </def:leaf>
      <ItemDef OID="IT.AE.STUDYID" Name="STUDYID" SASFieldName="STUDYID" DataType="text" Length="6">
        <Description>
          <TranslatedText xml:lang="en">Study Identifier</TranslatedText>
        </Description>
        <def:Origin Type="Assigned"/>
      </ItemDef>
      <ItemDef OID="IT.AE.DOMAIN" Name="DOMAIN" SASFieldName="DOMAIN" DataType="text" Length="2">
        <Description>
          <TranslatedText xml:lang="en">Domain Abbreviation</TranslatedText>
        </Description>
        <def:Origin Type="Assigned"/>
      </ItemDef>
      <ItemDef OID="IT.AE.USUBJID" Name="USUBJID" SASFieldName="USUBJID" DataType="text" Length="13">
        <Description>
          <TranslatedText xml:lang="en">Unique Subject Identifier</TranslatedText>
        </Description>
        <def:Origin Type="Derived"/>
      </ItemDef>
      <ItemDef OID="IT.AE.AESEQ" Name="AESEQ" SASFieldName="AESEQ" DataType="integer">
        <Description>
          <TranslatedText xml:lang="en">Sequence Number</TranslatedText>
        </Description>
        <def:Origin Type="Derived"/>
      </ItemDef>
      <ItemDef OID="IT.AE.AETERM" Name="AETERM" SASFieldName="AETERM" DataType="text" Length="22">
        <Description>
          <TranslatedText xml:lang="en">Reported Term for the Adverse Event</TranslatedText>
        </Description>
        <def:Origin Type="CRF"/>
      </ItemDef>
      <ItemDef OID="IT.AE.AEDECOD" Name="AEDECOD" SASFieldName="AEDECOD" DataType="text" Length="18">
        <Description>
          <TranslatedText xml:lang="en">Dictionary-Derived Term</TranslatedText>
        </Description>
        <def:Origin Type="Derived"/>
      </ItemDef>
      <ItemDef OID="IT.AE.AESEV" Name="AESEV" SASFieldName="AESEV" DataType="text" Length="8">
        <Description>
          <TranslatedText xml:lang="en">Severity/Intensity</TranslatedText>
        </Description>
        <CodeListRef CodeListOID="CL.AESEV"/>
        <def:Origin Type="CRF"/>
      </ItemDef>
      <ItemDef OID="IT.AE.AESER" Name="AESER" SASFieldName="AESER" DataType="text" Length="1">
        <Description>
          <TranslatedText xml:lang="en">Serious Event</TranslatedText>
        </Description>
        <CodeListRef CodeListOID="CL.NY"/>
        <def:Origin Type="CRF"/>
      </ItemDef>
      <ItemDef OID="IT.AE.AEREL" Name="AEREL" SASFieldName="AEREL" DataType="text" Length="16">
        <Description>
          <TranslatedText xml:lang="en">Causality</TranslatedText>
        </Description>
        <def:Origin Type="CRF"/>
      </ItemDef>
      <ItemDef OID="IT.AE.AEOUT" Name="AEOUT" SASFieldName="AEOUT" DataType="text" Length="26">
        <Description>
          <TranslatedText xml:lang="en">Outcome of Adverse Event</TranslatedText>
        </Description>
        <CodeListRef CodeListOID="CL.AEOUT"/>
        <def:Origin Type="CRF"/>
      </ItemDef>
      <ItemDef OID="IT.AE.AESTDTC" Name="AESTDTC" SASFieldName="AESTDTC" DataType="text" Length="10">
        <Description>
          <TranslatedText xml:lang="en">Start Date/Time of Adverse Event</TranslatedText>
        </Description>
        <def:Origin Type="CRF"/>
      </ItemDef>
      <ItemDef OID="IT.AE.AEENDTC" Name="AEENDTC" SASFieldName="AEENDTC" DataType="text" Length="10">
        <Description>
          <TranslatedText xml:lang="en">End Date/Time of Adverse Event</TranslatedText>
        </Description>
        <def:Origin Type="CRF"/>
      </ItemDef>
      <ItemDef OID="IT.AE.AESTDY" Name="AESTDY" SASFieldName="AESTDY" DataType="integer">
        <Description>
          <TranslatedText xml:lang="en">Study Day of Start of Event</TranslatedText>
        </Description>
        <def:Origin Type="Derived"/>
      </ItemDef>
      <ItemDef OID="IT.AE.AEENDY" Name="AEENDY" SASFieldName="AEENDY" DataType="integer">
        <Description>
          <TranslatedText xml:lang="en">Study Day of End of Event</TranslatedText>
        </Description>
        <def:Origin Type="Derived"/>
      </ItemDef>
      <ItemDef OID="IT.CM.STUDYID" Name="STUDYID" SASFieldName="STUDYID" DataType="text" Length="6">
        <Description>
          <TranslatedText xml:lang="en">Study Identifier</TranslatedText>
        </Description>
        <def:Origin Type="Assigned"/>
      </ItemDef>
      <ItemDef OID="IT.CM.DOMAIN" Name="DOMAIN" SASFieldName="DOMAIN" DataType="text" Length="2">
        <Description>
          <TranslatedText xml:lang="en">Domain Abbreviation</TranslatedText>
        </Description>
        <def:Origin Type="Assigned"/>
      </ItemDef>
      <ItemDef OID="IT.CM.USUBJID" Name="USUBJID" SASFieldName="USUBJID" DataType="text" Length="13">
        <Description>
          <TranslatedText xml:lang="en">Unique Subject Identifier</TranslatedText>
        </Description>
        <def:Origin Type="Derived"/>
      </ItemDef>
      <ItemDef OID="IT.CM.CMSEQ" Name="CMSEQ" SASFieldName="CMSEQ" DataType="integer">
        <Description>
          <TranslatedText xml:lang="en">Sequence Number</TranslatedText>
        </Description>
        <def:Origin Type="Derived"/>
      </ItemDef>
      <ItemDef OID="IT.CM.CMTRT" Name="CMTRT" SASFieldName="CMTRT" DataType="text" Length="20">
        <Description>
          <TranslatedText xml:lang="en">Reported Name of Drug, Med, or Therapy</TranslatedText>
        </Description>
        <def:Origin Type="CRF"/>
      </ItemDef>
      <ItemDef OID="IT.CM.CMDECOD" Name="CMDECOD" SASFieldName="CMDECOD" DataType="text" Length="20">
        <Description>
          <TranslatedText xml:lang="en">Standardized Medication Name</TranslatedText>
        </Description>
        <def:Origin Type="Derived"/>
      </ItemDef>
      <ItemDef OID="IT.CM.CMINDC" Name="CMINDC" SASFieldName="CMINDC" DataType="text" Length="19">
        <Description>
          <TranslatedText xml:lang="en">Indication</TranslatedText>
        </Description>
        <def:Origin Type="CRF"/>
      </ItemDef>
      <ItemDef OID="IT.CM.CMDOSE" Name="CMDOSE" SASFieldName="CMDOSE" DataType="integer">
        <Description>
          <TranslatedText xml:lang="en">Dose per Administration</TranslatedText>
        </Description>
        <def:Origin Type="CRF"/>
      </ItemDef>
      <ItemDef OID="IT.CM.CMDOSU" Name="CMDOSU" SASFieldName="CMDOSU" DataType="text" Length="2">
        <Description>
          <TranslatedText xml:lang="en">Dose Units</TranslatedText>
        </Description>
        <def:Origin Type="CRF"/>
      </ItemDef>
      <ItemDef OID="IT.CM.CMDOSFRQ" Name="CMDOSFRQ" SASFieldName="CMDOSFRQ" DataType="text" Length="3">
        <Description>
          <TranslatedText xml:lang="en">Dosing Frequency per Interval</TranslatedText>
        </Description>
        <def:Origin Type="CRF"/>
      </ItemDef>
      <ItemDef OID="IT.CM.CMROUTE" Name="CMROUTE" SASFieldName="CMROUTE" DataType="text" Length="7">
        <Description>
          <TranslatedText xml:lang="en">Route of Administration</TranslatedText>
        </Description>
        <def:Origin Type="CRF"/>
      </ItemDef>
      <ItemDef OID="IT.CM.CMSTDTC" Name="CMSTDTC" SASFieldName="CMSTDTC" DataType="text" Length="10">
        <Description>
          <TranslatedText xml:lang="en">Start Date/Time of Medication</TranslatedText>
        </Description>
        <def:Origin Type="CRF"/>
      </ItemDef>
      <ItemDef OID="IT.CM.CMENDTC" Name="CMENDTC" SASFieldName="CMENDTC" DataType="text" Length="10">
        <Description>
          <TranslatedText xml:lang="en">End Date/Time of Medication</TranslatedText>
        </Description>
        <def:Origin Type="CRF"/>
      </ItemDef>
      <ItemDef OID="IT.CM.CMSTDY" Name="CMSTDY" SASFieldName="CMSTDY" DataType="integer">
        <Description>
          <TranslatedText xml:lang="en">Study Day of Start of Medication</TranslatedText>
        </Description>
        <def:Origin Type="Derived"/>
      </ItemDef>
      <ItemDef OID="IT.CM.CMENDY" Name="CMENDY" SASFieldName="CMENDY" DataType="integer">
        <Description>
          <TranslatedText xml:lang="en">Study Day of End of Medication</TranslatedText>
        </Description>
        <def:Origin Type="Derived"/>
      </ItemDef>
      <ItemDef OID="IT.DM.STUDYID" Name="STUDYID" SASFieldName="STUDYID" DataType="text" Length="6">
        <Description>
          <TranslatedText xml:lang="en">Study Identifier</TranslatedText>
        </Description>
        <def:Origin Type="Assigned"/>
      </ItemDef>
      <ItemDef OID="IT.DM.DOMAIN" Name="DOMAIN" SASFieldName="DOMAIN" DataType="text" Length="2">
        <Description>
          <TranslatedText xml:lang="en">Domain Abbreviation</TranslatedText>
        </Description>
        <def:Origin Type="Assigned"/>
      </ItemDef>
      <ItemDef OID="IT.DM.USUBJID" Name="USUBJID" SASFieldName="USUBJID" DataType="text" Length="13">
        <Description>
          <TranslatedText xml:lang="en">Unique Subject Identifier</TranslatedText>
        </Description>
        <def:Origin Type="Derived"/>
      </ItemDef>
      <ItemDef OID="IT.DM.SUBJID" Name="SUBJID" SASFieldName="SUBJID" DataType="text" Length="3">
        <Description>
          <TranslatedText xml:lang="en">Subject Identifier for the Study</TranslatedText>
        </Description>
        <def:Origin Type="CRF"/>
      </ItemDef>
      <ItemDef OID="IT.DM.RFSTDTC" Name="RFSTDTC" SASFieldName="RFSTDTC" DataType="text" Length="10">
        <Description>
          <TranslatedText xml:lang="en">Subject Reference Start Date/Time</TranslatedText>
        </Description>
        <def:Origin Type="Derived"/>
      </ItemDef>
      <ItemDef OID="IT.DM.RFENDTC" Name="RFENDTC" SASFieldName="RFENDTC" DataType="text" Length="10">
        <Description>
          <TranslatedText xml:lang="en">Subject Reference End Date/Time</TranslatedText>
        </Description>
        <def:Origin Type="Derived"/>
      </ItemDef>
      <ItemDef OID="IT.DM.RFXSTDTC" Name="RFXSTDTC" SASFieldName="RFXSTDTC" DataType="text" Length="10">
        <Description>
          <TranslatedText xml:lang="en">Date/Time of First Study Treatment</TranslatedText>
        </Description>
        <def:Origin Type="Derived"/>
      </ItemDef>
      <ItemDef OID="IT.DM.RFXENDTC" Name="RFXENDTC" SASFieldName="RFXENDTC" DataType="text" Length="10">
        <Description>
          <TranslatedText xml:lang="en">Date/Time of Last Study Treatment</TranslatedText>
        </Description>
        <def:Origin Type="Derived"/>
      </ItemDef>
      <ItemDef OID="IT.DM.RFICDTC" Name="RFICDTC" SASFieldName="RFICDTC" DataType="text" Length="10">
        <Description>
          <TranslatedText xml:lang="en">Date/Time of Informed Consent</TranslatedText>
        </Description>
        <def:Origin Type="CRF"/>
      </ItemDef>
      <ItemDef OID="IT.DM.RFPENDTC" Name="RFPENDTC" SASFieldName="RFPENDTC" DataType="text" Length="10">
        <Description>
          <TranslatedText xml:lang="en">Date/Time of End of Participation</TranslatedText>
        </Description>
        <def:Origin Type="CRF"/>
      </ItemDef>
      <ItemDef OID="IT.DM.DTHDTC" Name="DTHDTC" SASFieldName="DTHDTC" DataType="text" Length="1">
        <Description>
          <TranslatedText xml:lang="en">Date/Time of Death</TranslatedText>
        </Description>
        <def:Origin Type="CRF"/>
      </ItemDef>
      <ItemDef OID="IT.DM.DTHFL" Name="DTHFL" SASFieldName="DTHFL" DataType="text" Length="1">
        <Description>
          <TranslatedText xml:lang="en">Subject Death Flag</TranslatedText>
        </Description>
        <def:Origin Type="Derived"/>
      </ItemDef>
      <ItemDef OID="IT.DM.SITEID" Name="SITEID" SASFieldName="SITEID" DataType="text" Length="2">
        <Description>
          <TranslatedText xml:lang="en">Study Site Identifier</TranslatedText>
        </Description>
        <def:Origin Type="CRF"/>
      </ItemDef>
      <ItemDef OID="IT.DM.AGE" Name="AGE" SASFieldName="AGE" DataType="integer">
        <Description>
          <TranslatedText xml:lang="en">Age</TranslatedText>
        </Description>
        <def:Origin Type="Derived"/>
      </ItemDef>
      <ItemDef OID="IT.DM.AGEU" Name="AGEU" SASFieldName="AGEU" DataType="text" Length="5">
        <Description>
          <TranslatedText xml:lang="en">Age Units</TranslatedText>
        </Description>
        <def:Origin Type="Assigned"/>
      </ItemDef>
      <ItemDef OID="IT.DM.SEX" Name="SEX" SASFieldName="SEX" DataType="text" Length="1">
        <Description>
          <TranslatedText xml:lang="en">Sex</TranslatedText>
        </Description>
        <CodeListRef CodeListOID="CL.SEX"/>
        <def:Origin Type="CRF"/>
      </ItemDef>
      <ItemDef OID="IT.DM.RACE" Name="RACE" SASFieldName="RACE" DataType="text" Length="25">
        <Description>
          <TranslatedText xml:lang="en">Race</TranslatedText>
        </Description>
        <def:Origin Type="CRF"/>
      </ItemDef>
      <ItemDef OID="IT.DM.ETHNIC" Name="ETHNIC" SASFieldName="ETHNIC" DataType="text" Length="22">
        <Description>
          <TranslatedText xml:lang="en">Ethnicity</TranslatedText>
        </Description>
        <def:Origin Type="CRF"/>
      </ItemDef>
      <ItemDef OID="IT.DM.ARMCD" Name="ARMCD" SASFieldName="ARMCD" DataType="text" Length="1">
        <Description>
          <TranslatedText xml:lang="en">Planned Arm Code</TranslatedText>
        </Description>
        <def:Origin Type="Derived"/>
      </ItemDef>
      <ItemDef OID="IT.DM.ARM" Name="ARM" SASFieldName="ARM" DataType="text" Length="7">
        <Description>
          <TranslatedText xml:lang="en">Description of Planned Arm</TranslatedText>
        </Description>
        <def:Origin Type="CRF"/>
      </ItemDef>
      <ItemDef OID="IT.DM.ACTARMCD" Name="ACTARMCD" SASFieldName="ACTARMCD" DataType="text" Length="1">
        <Description>
          <TranslatedText xml:lang="en">Actual Arm Code</TranslatedText>
        </Description>
        <def:Origin Type="Derived"/>
      </ItemDef>
      <ItemDef OID="IT.DM.ACTARM" Name="ACTARM" SASFieldName="ACTARM" DataType="text" Length="7">
        <Description>
          <TranslatedText xml:lang="en">Description of Actual Arm</TranslatedText>
        </Description>
        <def:Origin Type="Derived"/>
      </ItemDef>
      <ItemDef OID="IT.DM.COUNTRY" Name="COUNTRY" SASFieldName="COUNTRY" DataType="text" Length="3">
        <Description>
          <TranslatedText xml:lang="en">Country</TranslatedText>
        </Description>
        <def:Origin Type="CRF"/>
      </ItemDef>
      <ItemDef OID="IT.DS.STUDYID" Name="STUDYID" SASFieldName="STUDYID" DataType="text" Length="6">
        <Description>
          <TranslatedText xml:lang="en">Study Identifier</TranslatedText>
        </Description>
        <def:Origin Type="Assigned"/>
      </ItemDef>
      <ItemDef OID="IT.DS.DOMAIN" Name="DOMAIN" SASFieldName="DOMAIN" DataType="text" Length="2">
        <Description>
          <TranslatedText xml:lang="en">Domain Abbreviation</TranslatedText>
        </Description>
        <def:Origin Type="Assigned"/>
      </ItemDef>
      <ItemDef OID="IT.DS.USUBJID" Name="USUBJID" SASFieldName="USUBJID" DataType="text" Length="13">
        <Description>
          <TranslatedText xml:lang="en">Unique Subject Identifier</TranslatedText>
        </Description>
        <def:Origin Type="Derived"/>
      </ItemDef>
      <ItemDef OID="IT.DS.DSSEQ" Name="DSSEQ" SASFieldName="DSSEQ" DataType="integer">
        <Description>
          <TranslatedText xml:lang="en">Sequence Number</TranslatedText>
        </Description>
        <def:Origin Type="Derived"/>
      </ItemDef>
      <ItemDef OID="IT.DS.DSTERM" Name="DSTERM" SASFieldName="DSTERM" DataType="text" Length="27">
        <Description>
          <TranslatedText xml:lang="en">Reported Term for the Disposition Event</TranslatedText>
        </Description>
        <def:Origin Type="CRF"/>
      </ItemDef>
      <ItemDef OID="IT.DS.DSDECOD" Name="DSDECOD" SASFieldName="DSDECOD" DataType="text" Length="25">
        <Description>
          <TranslatedText xml:lang="en">Standardized Disposition Term</TranslatedText>
        </Description>
        <CodeListRef CodeListOID="CL.NCOMPLT"/>
        <def:Origin Type="Derived"/>
      </ItemDef>
      <ItemDef OID="IT.DS.DSCAT" Name="DSCAT" SASFieldName="DSCAT" DataType="text" Length="18">
        <Description>
          <TranslatedText xml:lang="en">Category for Disposition Event</TranslatedText>
        </Description>
        <def:Origin Type="Derived"/>
      </ItemDef>
      <ItemDef OID="IT.DS.DSSTDTC" Name="DSSTDTC" SASFieldName="DSSTDTC" DataType="text" Length="10">
        <Description>
          <TranslatedText xml:lang="en">Start Date/Time of Disposition Event</TranslatedText>
        </Description>
        <def:Origin Type="CRF"/>
      </ItemDef>
      <ItemDef OID="IT.DS.DSSTDY" Name="DSSTDY" SASFieldName="DSSTDY" DataType="integer">
        <Description>
          <TranslatedText xml:lang="en">Study Day of Start of Disposition Event</TranslatedText>
        </Description>
        <def:Origin Type="Derived"/>
      </ItemDef>
      <ItemDef OID="IT.EX.STUDYID" Name="STUDYID" SASFieldName="STUDYID" DataType="text" Length="6">
        <Description>
          <TranslatedText xml:lang="en">Study Identifier</TranslatedText>
        </Description>
        <def:Origin Type="Assigned"/>
      </ItemDef>
      <ItemDef OID="IT.EX.DOMAIN" Name="DOMAIN" SASFieldName="DOMAIN" DataType="text" Length="2">
        <Description>
          <TranslatedText xml:lang="en">Domain Abbreviation</TranslatedText>
        </Description>
        <def:Origin Type="Assigned"/>
      </ItemDef>
      <ItemDef OID="IT.EX.USUBJID" Name="USUBJID" SASFieldName="USUBJID" DataType="text" Length="13">
        <Description>
          <TranslatedText xml:lang="en">Unique Subject Identifier</TranslatedText>
        </Description>
        <def:Origin Type="Derived"/>
      </ItemDef>
      <ItemDef OID="IT.EX.EXSEQ" Name="EXSEQ" SASFieldName="EXSEQ" DataType="integer">
        <Description>
          <TranslatedText xml:lang="en">Sequence Number</TranslatedText>
        </Description>
        <def:Origin Type="Derived"/>
      </ItemDef>
      <ItemDef OID="IT.EX.EXTRT" Name="EXTRT" SASFieldName="EXTRT" DataType="text" Length="7">
        <Description>
          <TranslatedText xml:lang="en">Name of Treatment</TranslatedText>
        </Description>
        <def:Origin Type="CRF"/>
      </ItemDef>
      <ItemDef OID="IT.EX.EXDOSE" Name="EXDOSE" SASFieldName="EXDOSE" DataType="integer">
        <Description>
          <TranslatedText xml:lang="en">Dose per Administration</TranslatedText>
        </Description>
        <def:Origin Type="CRF"/>
      </ItemDef>
      <ItemDef OID="IT.EX.EXDOSU" Name="EXDOSU" SASFieldName="EXDOSU" DataType="text" Length="2">
        <Description>
          <TranslatedText xml:lang="en">Dose Units</TranslatedText>
        </Description>
        <def:Origin Type="CRF"/>
      </ItemDef>
      <ItemDef OID="IT.EX.EXDOSFRQ" Name="EXDOSFRQ" SASFieldName="EXDOSFRQ" DataType="text" Length="2">
        <Description>
          <TranslatedText xml:lang="en">Dosing Frequency per Interval</TranslatedText>
        </Description>
        <def:Origin Type="CRF"/>
      </ItemDef>
      <ItemDef OID="IT.EX.EXROUTE" Name="EXROUTE" SASFieldName="EXROUTE" DataType="text" Length="4">
        <Description>
          <TranslatedText xml:lang="en">Route of Administration</TranslatedText>
        </Description>
        <def:Origin Type="CRF"/>
      </ItemDef>
      <ItemDef OID="IT.EX.EXSTDTC" Name="EXSTDTC" SASFieldName="EXSTDTC" DataType="text" Length="10">
        <Description>
          <TranslatedText xml:lang="en">Start Date/Time of Treatment</TranslatedText>
        </Description>
        <def:Origin Type="CRF"/>
      </ItemDef>
      <ItemDef OID="IT.EX.EXENDTC" Name="EXENDTC" SASFieldName="EXENDTC" DataType="text" Length="10">
        <Description>
          <TranslatedText xml:lang="en">End Date/Time of Treatment</TranslatedText>
        </Description>
        <def:Origin Type="CRF"/>
      </ItemDef>
      <ItemDef OID="IT.EX.EXSTDY" Name="EXSTDY" SASFieldName="EXSTDY" DataType="integer">
        <Description>
          <TranslatedText xml:lang="en">Study Day of Start of Treatment</TranslatedText>
        </Description>
        <def:Origin Type="Derived"/>
      </ItemDef>
      <ItemDef OID="IT.EX.EXENDY" Name="EXENDY" SASFieldName="EXENDY" DataType="integer">
        <Description>
          <TranslatedText xml:lang="en">Study Day of End of Treatment</TranslatedText>
        </Description>
        <def:Origin Type="Derived"/>
      </ItemDef>
      <ItemDef OID="IT.LB.STUDYID" Name="STUDYID" SASFieldName="STUDYID" DataType="text" Length="6">
        <Description>
          <TranslatedText xml:lang="en">Study Identifier</TranslatedText>
        </Description>
        <def:Origin Type="Assigned"/>
      </ItemDef>
      <ItemDef OID="IT.LB.DOMAIN" Name="DOMAIN" SASFieldName="DOMAIN" DataType="text" Length="2">
        <Description>
          <TranslatedText xml:lang="en">Domain Abbreviation</TranslatedText>
        </Description>
        <def:Origin Type="Assigned"/>
      </ItemDef>
      <ItemDef OID="IT.LB.USUBJID" Name="USUBJID" SASFieldName="USUBJID" DataType="text" Length="13">
        <Description>
          <TranslatedText xml:lang="en">Unique Subject Identifier</TranslatedText>
        </Description>
        <def:Origin Type="Derived"/>
      </ItemDef>
      <ItemDef OID="IT.LB.LBSEQ" Name="LBSEQ" SASFieldName="LBSEQ" DataType="integer">
        <Description>
          <TranslatedText xml:lang="en">Sequence Number</TranslatedText>
        </Description>
        <def:Origin Type="Derived"/>
      </ItemDef>
      <ItemDef OID="IT.LB.LBTESTCD" Name="LBTESTCD" SASFieldName="LBTESTCD" DataType="text" Length="5">
        <Description>
          <TranslatedText xml:lang="en">Lab Test or Examination Short Name</TranslatedText>
        </Description>
        <def:Origin Type="Derived"/>
      </ItemDef>
      <ItemDef OID="IT.LB.LBTEST" Name="LBTEST" SASFieldName="LBTEST" DataType="text" Length="24">
        <Description>
          <TranslatedText xml:lang="en">Lab Test or Examination Name</TranslatedText>
        </Description>
        <def:Origin Type="Derived"/>
      </ItemDef>
      <ItemDef OID="IT.LB.LBCAT" Name="LBCAT" SASFieldName="LBCAT" DataType="text" Length="10">
        <Description>
          <TranslatedText xml:lang="en">Category for Lab Test</TranslatedText>
        </Description>
        <def:Origin Type="Derived"/>
      </ItemDef>
      <ItemDef OID="IT.LB.LBORRES" Name="LBORRES" SASFieldName="LBORRES" DataType="text" Length="4">
        <Description>
          <TranslatedText xml:lang="en">Result or Finding in Original Units</TranslatedText>
        </Description>
        <def:Origin Type="CRF"/>
      </ItemDef>
      <ItemDef OID="IT.LB.LBORRESU" Name="LBORRESU" SASFieldName="LBORRESU" DataType="text" Length="6">
        <Description>
          <TranslatedText xml:lang="en">Original Units</TranslatedText>
        </Description>
        <def:Origin Type="CRF"/>
      </ItemDef>
      <ItemDef OID="IT.LB.LBORNRLO" Name="LBORNRLO" SASFieldName="LBORNRLO" DataType="text" Length="4">
        <Description>
          <TranslatedText xml:lang="en">Reference Range Lower Limit (orig)</TranslatedText>
        </Description>
        <def:Origin Type="CRF"/>
      </ItemDef>
      <ItemDef OID="IT.LB.LBORNRHI" Name="LBORNRHI" SASFieldName="LBORNRHI" DataType="text" Length="4">
        <Description>
          <TranslatedText xml:lang="en">Reference Range Upper Limit (orig)</TranslatedText>
        </Description>
        <def:Origin Type="CRF"/>
      </ItemDef>
      <ItemDef OID="IT.LB.LBSTRESC" Name="LBSTRESC" SASFieldName="LBSTRESC" DataType="text" Length="4">
        <Description>
          <TranslatedText xml:lang="en">Character Result in Std Format</TranslatedText>
        </Description>
        <def:Origin Type="Derived"/>
      </ItemDef>
      <ItemDef OID="IT.LB.LBSTRESN" Name="LBSTRESN" SASFieldName="LBSTRESN" DataType="integer">
        <Description>
          <TranslatedText xml:lang="en">Numeric Result in Std Units</TranslatedText>
        </Description>
        <def:Origin Type="Derived"/>
      </ItemDef>
      <ItemDef OID="IT.LB.LBSTRESU" Name="LBSTRESU" SASFieldName="LBSTRESU" DataType="text" Length="6">
        <Description>
          <TranslatedText xml:lang="en">Standard Units</TranslatedText>
        </Description>
        <def:Origin Type="Derived"/>
      </ItemDef>
      <ItemDef OID="IT.LB.LBSTNRLO" Name="LBSTNRLO" SASFieldName="LBSTNRLO" DataType="integer">
        <Description>
          <TranslatedText xml:lang="en">Reference Range Lower Limit (std)</TranslatedText>
        </Description>
        <def:Origin Type="Derived"/>
      </ItemDef>
      <ItemDef OID="IT.LB.LBSTNRHI" Name="LBSTNRHI" SASFieldName="LBSTNRHI" DataType="integer">
        <Description>
          <TranslatedText xml:lang="en">Reference Range Upper Limit (std)</TranslatedText>
        </Description>
        <def:Origin Type="Derived"/>
      </ItemDef>
      <ItemDef OID="IT.LB.LBNRIND" Name="LBNRIND" SASFieldName="LBNRIND" DataType="text" Length="6">
        <Description>
          <TranslatedText xml:lang="en">Reference Range Indicator</TranslatedText>
        </Description>
        <def:Origin Type="Derived"/>
      </ItemDef>
      <ItemDef OID="IT.LB.LBBLFL" Name="LBBLFL" SASFieldName="LBBLFL" DataType="text" Length="1">
        <Description>
          <TranslatedText xml:lang="en">Baseline Flag</TranslatedText>
        </Description>
        <def:Origin Type="Derived"/>
      </ItemDef>
      <ItemDef OID="IT.LB.VISITNUM" Name="VISITNUM" SASFieldName="VISITNUM" DataType="integer">
        <Description>
          <TranslatedText xml:lang="en">Visit Number</TranslatedText>
        </Description>
        <def:Origin Type="Derived"/>
      </ItemDef>
      <ItemDef OID="IT.LB.VISIT" Name="VISIT" SASFieldName="VISIT" DataType="text" Length="8">
        <Description>
          <TranslatedText xml:lang="en">Visit Name</TranslatedText>
        </Description>
        <def:Origin Type="CRF"/>
      </ItemDef>
      <ItemDef OID="IT.LB.LBDTC" Name="LBDTC" SASFieldName="LBDTC" DataType="text" Length="10">
        <Description>
          <TranslatedText xml:lang="en">Date/Time of Specimen Collection</TranslatedText>
        </Description>
        <def:Origin Type="CRF"/>
      </ItemDef>
      <ItemDef OID="IT.LB.LBDY" Name="LBDY" SASFieldName="LBDY" DataType="integer">
        <Description>
          <TranslatedText xml:lang="en">Study Day of Specimen Collection</TranslatedText>
        </Description>
        <def:Origin Type="Derived"/>
      </ItemDef>
      <ItemDef OID="IT.SUPPAE.STUDYID" Name="STUDYID" SASFieldName="STUDYID" DataType="text" Length="6">
        <Description>
          <TranslatedText xml:lang="en">Study Identifier</TranslatedText>
        </Description>
        <def:Origin Type="Assigned"/>
      </ItemDef>
      <ItemDef OID="IT.SUPPAE.RDOMAIN" Name="RDOMAIN" SASFieldName="RDOMAIN" DataType="text" Length="2">
        <Description>
          <TranslatedText xml:lang="en">Related Domain Abbreviation</TranslatedText>
        </Description>
        <def:Origin Type="Assigned"/>
      </ItemDef>
      <ItemDef OID="IT.SUPPAE.USUBJID" Name="USUBJID" SASFieldName="USUBJID" DataType="text" Length="13">
        <Description>
          <TranslatedText xml:lang="en">Unique Subject Identifier</TranslatedText>
        </Description>
        <def:Origin Type="Derived"/>
      </ItemDef>
      <ItemDef OID="IT.SUPPAE.IDVAR" Name="IDVAR" SASFieldName="IDVAR" DataType="text" Length="5">
        <Description>
          <TranslatedText xml:lang="en">Identifying Variable</TranslatedText>
        </Description>
        <def:Origin Type="Assigned"/>
      </ItemDef>
      <ItemDef OID="IT.SUPPAE.IDVARVAL" Name="IDVARVAL" SASFieldName="IDVARVAL" DataType="text" Length="1">
        <Description>
          <TranslatedText xml:lang="en">Identifying Variable Value</TranslatedText>
        </Description>
        <def:Origin Type="Derived"/>
      </ItemDef>
      <ItemDef OID="IT.SUPPAE.QNAM" Name="QNAM" SASFieldName="QNAM" DataType="text" Length="7">
        <Description>
          <TranslatedText xml:lang="en">Qualifier Variable Name</TranslatedText>
        </Description>
        <def:Origin Type="Assigned"/>
      </ItemDef>
      <ItemDef OID="IT.SUPPAE.QLABEL" Name="QLABEL" SASFieldName="QLABEL" DataType="text" Length="23">
        <Description>
          <TranslatedText xml:lang="en">Qualifier Variable Label</TranslatedText>
        </Description>
        <def:Origin Type="Assigned"/>
      </ItemDef>
      <ItemDef OID="IT.SUPPAE.QVAL" Name="QVAL" SASFieldName="QVAL" DataType="text" Length="1">
        <Description>
          <TranslatedText xml:lang="en">Data Value</TranslatedText>
        </Description>
        <def:Origin Type="Derived"/>
      </ItemDef>
      <ItemDef OID="IT.SUPPAE.QORIG" Name="QORIG" SASFieldName="QORIG" DataType="text" Length="7">
        <Description>
          <TranslatedText xml:lang="en">Origin</TranslatedText>
        </Description>
        <def:Origin Type="Assigned"/>
      </ItemDef>
      <ItemDef OID="IT.SUPPAE.QEVAL" Name="QEVAL" SASFieldName="QEVAL" DataType="text" Length="1">
        <Description>
          <TranslatedText xml:lang="en">Evaluator</TranslatedText>
        </Description>
        <def:Origin Type="Assigned"/>
      </ItemDef>
      <ItemDef OID="IT.VS.STUDYID" Name="STUDYID" SASFieldName="STUDYID" DataType="text" Length="6">
        <Description>
          <TranslatedText xml:lang="en">Study Identifier</TranslatedText>
        </Description>
        <def:Origin Type="Assigned"/>
      </ItemDef>
      <ItemDef OID="IT.VS.DOMAIN" Name="DOMAIN" SASFieldName="DOMAIN" DataType="text" Length="2">
        <Description>
          <TranslatedText xml:lang="en">Domain Abbreviation</TranslatedText>
        </Description>
        <def:Origin Type="Assigned"/>
      </ItemDef>
      <ItemDef OID="IT.VS.USUBJID" Name="USUBJID" SASFieldName="USUBJID" DataType="text" Length="13">
        <Description>
          <TranslatedText xml:lang="en">Unique Subject Identifier</TranslatedText>
        </Description>
        <def:Origin Type="Derived"/>
      </ItemDef>
      <ItemDef OID="IT.VS.VSSEQ" Name="VSSEQ" SASFieldName="VSSEQ" DataType="integer">
        <Description>
          <TranslatedText xml:lang="en">Sequence Number</TranslatedText>
        </Description>
        <def:Origin Type="Derived"/>
      </ItemDef>
      <ItemDef OID="IT.VS.VSTESTCD" Name="VSTESTCD" SASFieldName="VSTESTCD" DataType="text" Length="6">
        <Description>
          <TranslatedText xml:lang="en">Vital Signs Test Short Name</TranslatedText>
        </Description>
        <def:Origin Type="Derived"/>
      </ItemDef>
      <ItemDef OID="IT.VS.VSTEST" Name="VSTEST" SASFieldName="VSTEST" DataType="text" Length="24">
        <Description>
          <TranslatedText xml:lang="en">Vital Signs Test Name</TranslatedText>
        </Description>
        <def:Origin Type="Derived"/>
      </ItemDef>
      <ItemDef OID="IT.VS.VSORRES" Name="VSORRES" SASFieldName="VSORRES" DataType="text" Length="4">
        <Description>
          <TranslatedText xml:lang="en">Result or Finding in Original Units</TranslatedText>
        </Description>
        <def:Origin Type="CRF"/>
      </ItemDef>
      <ItemDef OID="IT.VS.VSORRESU" Name="VSORRESU" SASFieldName="VSORRESU" DataType="text" Length="9">
        <Description>
          <TranslatedText xml:lang="en">Original Units</TranslatedText>
        </Description>
        <def:Origin Type="Protocol"/>
      </ItemDef>
      <ItemDef OID="IT.VS.VSSTRESC" Name="VSSTRESC" SASFieldName="VSSTRESC" DataType="text" Length="4">
        <Description>
          <TranslatedText xml:lang="en">Character Result in Std Format</TranslatedText>
        </Description>
        <def:Origin Type="Derived"/>
      </ItemDef>
      <ItemDef OID="IT.VS.VSSTRESN" Name="VSSTRESN" SASFieldName="VSSTRESN" DataType="integer">
        <Description>
          <TranslatedText xml:lang="en">Numeric Result in Std Units</TranslatedText>
        </Description>
        <def:Origin Type="Derived"/>
      </ItemDef>
      <ItemDef OID="IT.VS.VSSTRESU" Name="VSSTRESU" SASFieldName="VSSTRESU" DataType="text" Length="9">
        <Description>
          <TranslatedText xml:lang="en">Standard Units</TranslatedText>
        </Description>
        <def:Origin Type="Derived"/>
      </ItemDef>
      <ItemDef OID="IT.VS.VSBLFL" Name="VSBLFL" SASFieldName="VSBLFL" DataType="text" Length="1">
        <Description>
          <TranslatedText xml:lang="en">Baseline Flag</TranslatedText>
        </Description>
        <def:Origin Type="Derived"/>
      </ItemDef>
      <ItemDef OID="IT.VS.VISITNUM" Name="VISITNUM" SASFieldName="VISITNUM" DataType="integer">
        <Description>
          <TranslatedText xml:lang="en">Visit Number</TranslatedText>
        </Description>
        <def:Origin Type="Derived"/>
      </ItemDef>
      <ItemDef OID="IT.VS.VISIT" Name="VISIT" SASFieldName="VISIT" DataType="text" Length="9">
        <Description>
          <TranslatedText xml:lang="en">Visit Name</TranslatedText>
        </Description>
        <def:Origin Type="CRF"/>
      </ItemDef>
      <ItemDef OID="IT.VS.VSDTC" Name="VSDTC" SASFieldName="VSDTC" DataType="text" Length="10">
        <Description>
          <TranslatedText xml:lang="en">Date/Time of Measurements</TranslatedText>
        </Description>
        <def:Origin Type="CRF"/>
      </ItemDef>
      <ItemDef OID="IT.VS.VSDY" Name="VSDY" SASFieldName="VSDY" DataType="integer">
        <Description>
          <TranslatedText xml:lang="en">Study Day of Measurements</TranslatedText>
        </Description>
        <def:Origin Type="Derived"/>
      </ItemDef>
      <CodeList OID="CL.SEX" Name="Sex" DataType="text">
        <CodeListItem CodedValue="M">
          <Decode>
            <TranslatedText xml:lang="en">Male</TranslatedText>
          </Decode>
        </CodeListItem>
        <CodeListItem CodedValue="F">
          <Decode>
            <TranslatedText xml:lang="en">Female</TranslatedText>
          </Decode>
        </CodeListItem>
        <CodeListItem CodedValue="U">
          <Decode>
            <TranslatedText xml:lang="en">Unknown</TranslatedText>
          </Decode>
        </CodeListItem>
      </CodeList>
      <CodeList OID="CL.NY" Name="No Yes Response" DataType="text">
        <CodeListItem CodedValue="N">
          <Decode>
            <TranslatedText xml:lang="en">No</TranslatedText>
          </Decode>
        </CodeListItem>
        <CodeListItem CodedValue="Y">
          <Decode>
            <TranslatedText xml:lang="en">Yes</TranslatedText>
          </Decode>
        </CodeListItem>
      </CodeList>
      <CodeList OID="CL.AESEV" Name="Severity/Intensity Scale for Adverse Events" DataType="text">
        <CodeListItem CodedValue="MILD">
          <Decode>
            <TranslatedText xml:lang="en">Mild</TranslatedText>
          </Decode>
        </CodeListItem>
        <CodeListItem CodedValue="MODERATE">
          <Decode>
            <TranslatedText xml:lang="en">Moderate</TranslatedText>
          </Decode>
        </CodeListItem>
        <CodeListItem CodedValue="SEVERE">
          <Decode>
            <TranslatedText xml:lang="en">Severe</TranslatedText>
          </Decode>
        </CodeListItem>
      </CodeList>
      <CodeList OID="CL.AEOUT" Name="Outcome of Event" DataType="text">
        <CodeListItem CodedValue="RECOVERED/RESOLVED">
          <Decode>
            <TranslatedText xml:lang="en">Recovered/Resolved</TranslatedText>
          </Decode>
        </CodeListItem>
        <CodeListItem CodedValue="RECOVERING/RESOLVING">
          <Decode>
            <TranslatedText xml:lang="en">Recovering/Resolving</TranslatedText>
          </Decode>
        </CodeListItem>
        <CodeListItem CodedValue="NOT RECOVERED/NOT RESOLVED">
          <Decode>
            <TranslatedText xml:lang="en">Not Recovered/Not Resolved</TranslatedText>
          </Decode>
        </CodeListItem>
        <CodeListItem CodedValue="FATAL">
          <Decode>
            <TranslatedText xml:lang="en">Fatal</TranslatedText>
          </Decode>
        </CodeListItem>
        <CodeListItem CodedValue="UNKNOWN">
          <Decode>
            <TranslatedText xml:lang="en">Unknown</TranslatedText>
          </Decode>
        </CodeListItem>
      </CodeList>
      <CodeList OID="CL.NCOMPLT" Name="Completion/Reason for Non-Completion" DataType="text">
        <CodeListItem CodedValue="COMPLETED">
          <Decode>
            <TranslatedText xml:lang="en">Completed</TranslatedText>
          </Decode>
        </CodeListItem>
        <CodeListItem CodedValue="ADVERSE EVENT">
          <Decode>
            <TranslatedText xml:lang="en">Adverse Event</TranslatedText>
          </Decode>
        </CodeListItem>
      </CodeList>
      <MethodDef OID="MT.AE.AEDECOD" Name="Derivation of AEDECOD" Type="Computation">
        <Description>
          <TranslatedText xml:lang="en">Dictionary-coded term for AETERM. ILLUSTRATIVE ONLY - a real value comes from MedDRA coding performed by trained coders against a licensed version.</TranslatedText>
        </Description>
      </MethodDef>
      <MethodDef OID="MT.AE.USUBJID" Name="Derivation of USUBJID" Type="Computation">
        <Description>
          <TranslatedText xml:lang="en">Concatenation of STUDYID, SITEID and SUBJID separated by hyphens (e.g. ABC-01-01-001). SUBJID alone is unique only within a site.</TranslatedText>
        </Description>
      </MethodDef>
      <MethodDef OID="MT.CM.CMDECOD" Name="Derivation of CMDECOD" Type="Computation">
        <Description>
          <TranslatedText xml:lang="en">Dictionary-coded term for CMTRT. ILLUSTRATIVE ONLY - a real value comes from WHODrug coding against a licensed version.</TranslatedText>
        </Description>
      </MethodDef>
      <MethodDef OID="MT.CM.USUBJID" Name="Derivation of USUBJID" Type="Computation">
        <Description>
          <TranslatedText xml:lang="en">Concatenation of STUDYID, SITEID and SUBJID separated by hyphens (e.g. ABC-01-01-001). SUBJID alone is unique only within a site.</TranslatedText>
        </Description>
      </MethodDef>
      <MethodDef OID="MT.DM.ACTARM" Name="Derivation of ACTARM" Type="Computation">
        <Description>
          <TranslatedText xml:lang="en">Actual arm. Equal to planned ARM in this study; no subject was mis-dosed.</TranslatedText>
        </Description>
      </MethodDef>
      <MethodDef OID="MT.DM.ACTARMCD" Name="Derivation of ACTARMCD" Type="Computation">
        <Description>
          <TranslatedText xml:lang="en">Actual arm code. Equal to ARMCD in this study.</TranslatedText>
        </Description>
      </MethodDef>
      <MethodDef OID="MT.DM.AGE" Name="Derivation of AGE" Type="Computation">
        <Description>
          <TranslatedText xml:lang="en">Completed years from BRTHDTC to RFICDTC (informed consent), using continuous interval counting so a birthday not yet reached is not counted.</TranslatedText>
        </Description>
      </MethodDef>
      <MethodDef OID="MT.DM.ARMCD" Name="Derivation of ARMCD" Type="Computation">
        <Description>
          <TranslatedText xml:lang="en">Derived from ARM: 'Drug A' to 'A', 'Placebo' to 'P'.</TranslatedText>
        </Description>
      </MethodDef>
      <MethodDef OID="MT.DM.RFENDTC" Name="Derivation of RFENDTC" Type="Computation">
        <Description>
          <TranslatedText xml:lang="en">Date of last study treatment: the latest EXENDTC for the subject.</TranslatedText>
        </Description>
      </MethodDef>
      <MethodDef OID="MT.DM.RFSTDTC" Name="Derivation of RFSTDTC" Type="Computation">
        <Description>
          <TranslatedText xml:lang="en">Date of first study treatment: the earliest EXSTDTC for the subject. This is the reference start date from which all --DY values are derived.</TranslatedText>
        </Description>
      </MethodDef>
      <MethodDef OID="MT.DM.RFXENDTC" Name="Derivation of RFXENDTC" Type="Computation">
        <Description>
          <TranslatedText xml:lang="en">Last study-treatment exposure; equal to RFENDTC in this study.</TranslatedText>
        </Description>
      </MethodDef>
      <MethodDef OID="MT.DM.RFXSTDTC" Name="Derivation of RFXSTDTC" Type="Computation">
        <Description>
          <TranslatedText xml:lang="en">First study-treatment exposure; equal to RFSTDTC in this study.</TranslatedText>
        </Description>
      </MethodDef>
      <MethodDef OID="MT.DM.USUBJID" Name="Derivation of USUBJID" Type="Computation">
        <Description>
          <TranslatedText xml:lang="en">Concatenation of STUDYID, SITEID and SUBJID separated by hyphens (e.g. ABC-01-01-001). SUBJID alone is unique only within a site.</TranslatedText>
        </Description>
      </MethodDef>
      <MethodDef OID="MT.DS.DSDECOD" Name="Derivation of DSDECOD" Type="Computation">
        <Description>
          <TranslatedText xml:lang="en">Standardised disposition term derived from the collected end-of-study status and reason.</TranslatedText>
        </Description>
      </MethodDef>
      <MethodDef OID="MT.DS.USUBJID" Name="Derivation of USUBJID" Type="Computation">
        <Description>
          <TranslatedText xml:lang="en">Concatenation of STUDYID, SITEID and SUBJID separated by hyphens (e.g. ABC-01-01-001). SUBJID alone is unique only within a site.</TranslatedText>
        </Description>
      </MethodDef>
      <MethodDef OID="MT.EX.USUBJID" Name="Derivation of USUBJID" Type="Computation">
        <Description>
          <TranslatedText xml:lang="en">Concatenation of STUDYID, SITEID and SUBJID separated by hyphens (e.g. ABC-01-01-001). SUBJID alone is unique only within a site.</TranslatedText>
        </Description>
      </MethodDef>
      <MethodDef OID="MT.LB.LBBLFL" Name="Derivation of LBBLFL" Type="Computation">
        <Description>
          <TranslatedText xml:lang="en">Baseline flag. 'Y' on the last record on or before first dose, per subject per test, for tests that also have a post-dose result. Otherwise null.</TranslatedText>
        </Description>
      </MethodDef>
      <MethodDef OID="MT.LB.LBCAT" Name="Derivation of LBCAT" Type="Computation">
        <Description>
          <TranslatedText xml:lang="en">Derived from lb_raw.</TranslatedText>
        </Description>
      </MethodDef>
      <MethodDef OID="MT.LB.LBTEST" Name="Derivation of LBTEST" Type="Computation">
        <Description>
          <TranslatedText xml:lang="en">Derived from lb_raw.</TranslatedText>
        </Description>
      </MethodDef>
      <MethodDef OID="MT.LB.LBTESTCD" Name="Derivation of LBTESTCD" Type="Computation">
        <Description>
          <TranslatedText xml:lang="en">Derived from lb_raw.</TranslatedText>
        </Description>
      </MethodDef>
      <MethodDef OID="MT.LB.USUBJID" Name="Derivation of USUBJID" Type="Computation">
        <Description>
          <TranslatedText xml:lang="en">Concatenation of STUDYID, SITEID and SUBJID separated by hyphens (e.g. ABC-01-01-001). SUBJID alone is unique only within a site.</TranslatedText>
        </Description>
      </MethodDef>
      <MethodDef OID="MT.LB.VISITNUM" Name="Derivation of VISITNUM" Type="Computation">
        <Description>
          <TranslatedText xml:lang="en">Derived from lb_raw.</TranslatedText>
        </Description>
      </MethodDef>
      <MethodDef OID="MT.SUPPAE.IDVARVAL" Name="Derivation of IDVARVAL" Type="Computation">
        <Description>
          <TranslatedText xml:lang="en">Derived from sdtm/ae.csv.</TranslatedText>
        </Description>
      </MethodDef>
      <MethodDef OID="MT.SUPPAE.QVAL" Name="Derivation of QVAL" Type="Computation">
        <Description>
          <TranslatedText xml:lang="en">Derived from sdtm/ae.csv.</TranslatedText>
        </Description>
      </MethodDef>
      <MethodDef OID="MT.SUPPAE.USUBJID" Name="Derivation of USUBJID" Type="Computation">
        <Description>
          <TranslatedText xml:lang="en">Concatenation of STUDYID, SITEID and SUBJID separated by hyphens (e.g. ABC-01-01-001). SUBJID alone is unique only within a site.</TranslatedText>
        </Description>
      </MethodDef>
      <MethodDef OID="MT.VS.USUBJID" Name="Derivation of USUBJID" Type="Computation">
        <Description>
          <TranslatedText xml:lang="en">Concatenation of STUDYID, SITEID and SUBJID separated by hyphens (e.g. ABC-01-01-001). SUBJID alone is unique only within a site.</TranslatedText>
        </Description>
      </MethodDef>
      <MethodDef OID="MT.VS.VISITNUM" Name="Derivation of VISITNUM" Type="Computation">
        <Description>
          <TranslatedText xml:lang="en">Derived from vs_raw.</TranslatedText>
        </Description>
      </MethodDef>
      <MethodDef OID="MT.VS.VSBLFL" Name="Derivation of VSBLFL" Type="Computation">
        <Description>
          <TranslatedText xml:lang="en">Baseline flag. 'Y' on the last record on or before first dose, per subject per test, for tests that also have a post-dose result. Otherwise null.</TranslatedText>
        </Description>
      </MethodDef>
      <MethodDef OID="MT.VS.VSTEST" Name="Derivation of VSTEST" Type="Computation">
        <Description>
          <TranslatedText xml:lang="en">Derived from vs_raw.</TranslatedText>
        </Description>
      </MethodDef>
      <MethodDef OID="MT.VS.VSTESTCD" Name="Derivation of VSTESTCD" Type="Computation">
        <Description>
          <TranslatedText xml:lang="en">Derived from vs_raw.</TranslatedText>
        </Description>
      </MethodDef>
    </MetaDataVersion>
  </Study>
</ODM>
