STUDYID,DOMAIN,USUBJID,AESEQ,AETERM,AEDECOD,AESEV,AESER,AEREL,AEOUT,AESTDTC,AEENDTC,AESTDY,AEENDY
DEF-01,AE,DEF-01-01-001,1,feeling sick,Nausea,MILD,N,POSSIBLY RELATED,RECOVERED/RESOLVED,2024-03-13,2024-03-16,10,13
DEF-01,AE,DEF-01-01-002,1,headache,Headache,MILD,N,NOT RELATED,RECOVERED/RESOLVED,2024-03-20,2024-03-21,15,16
DEF-01,AE,DEF-01-01-003,1,low blood sugar,Hypoglycaemia,MODERATE,N,RELATED,RECOVERED/RESOLVED,2024-03-27,2024-03-28,17,18
DEF-01,AE,DEF-01-02-001,1,sinus congestion,Sinus congestion,MILD,N,NOT RELATED,NOT RECOVERED/NOT RESOLVED,2024-02,,,
DEF-01,AE,DEF-01-02-001,2,headache,Headache,MILD,N,POSSIBLY RELATED,RECOVERED/RESOLVED,2024-03-21,2024-03-23,9,11
DEF-01,AE,DEF-01-02-003,1,low blood sugar,Hypoglycaemia,SEVERE,N,RELATED,RECOVERED/RESOLVED,2024-04-07,2024-04-09,19,21
DEF-01,AE,DEF-01-02-003,2,nausea,Nausea,MILD,N,POSSIBLY RELATED,NOT RECOVERED/NOT RESOLVED,2024-04-19,,31,
