STUDYID,DOMAIN,USUBJID,SUBJID,RFSTDTC,RFENDTC,RFXSTDTC,RFXENDTC,RFICDTC,RFPENDTC,DTHDTC,DTHFL,SITEID,AGE,AGEU,SEX,RACE,ETHNIC,ARMCD,ARM,ACTARMCD,ACTARM,COUNTRY
DEF-01,DM,DEF-01-01-001,001,2024-03-04,2024-05-27,2024-03-04,2024-05-27,2024-02-19,,,,01,58,YEARS,M,WHITE,NOT HISPANIC OR LATINO,X,Drug X,X,Drug X,CAN
DEF-01,DM,DEF-01-01-002,002,2024-03-06,2024-05-29,2024-03-06,2024-05-29,2024-02-21,,,,01,65,YEARS,F,WHITE,NOT HISPANIC OR LATINO,P,Placebo,P,Placebo,CAN
DEF-01,DM,DEF-01-01-003,003,2024-03-11,2024-06-03,2024-03-11,2024-06-03,2024-02-26,,,,01,52,YEARS,F,ASIAN,NOT HISPANIC OR LATINO,X,Drug X,X,Drug X,CAN
DEF-01,DM,DEF-01-02-001,001,2024-03-13,2024-06-05,2024-03-13,2024-06-05,2024-02-28,,,,02,61,YEARS,M,BLACK OR AFRICAN AMERICAN,HISPANIC OR LATINO,X,Drug X,X,Drug X,USA
DEF-01,DM,DEF-01-02-002,002,2024-03-18,2024-06-10,2024-03-18,2024-06-10,2024-03-04,,,,02,55,YEARS,F,WHITE,NOT HISPANIC OR LATINO,P,Placebo,P,Placebo,USA
DEF-01,DM,DEF-01-02-003,003,2024-03-20,2024-06-12,2024-03-20,2024-06-12,2024-03-06,,,,02,68,YEARS,M,WHITE,UNKNOWN,X,Drug X,X,Drug X,USA
