STUDYID,DOMAIN,USUBJID,EXSEQ,EXTRT,EXDOSE,EXDOSU,EXDOSFRQ,EXROUTE,EXSTDTC,EXENDTC,EXSTDY,EXENDY
DEF-01,EX,DEF-01-01-001,1,Drug X,50,mg,QD,ORAL,2024-03-04,2024-05-27,1,85
DEF-01,EX,DEF-01-01-002,1,Placebo,0,mg,QD,ORAL,2024-03-06,2024-05-29,1,85
DEF-01,EX,DEF-01-01-003,1,Drug X,50,mg,QD,ORAL,2024-03-11,2024-06-03,1,85
DEF-01,EX,DEF-01-02-001,1,Drug X,50,mg,QD,ORAL,2024-03-13,2024-06-05,1,85
DEF-01,EX,DEF-01-02-002,1,Placebo,0,mg,QD,ORAL,2024-03-18,2024-06-10,1,85
DEF-01,EX,DEF-01-02-003,1,Drug X,50,mg,QD,ORAL,2024-03-20,2024-04-08,1,20
DEF-01,EX,DEF-01-02-003,2,Drug X,50,mg,QD,ORAL,2024-04-16,2024-06-12,28,85
