STUDYID,RDOMAIN,USUBJID,IDVAR,IDVARVAL,QNAM,QLABEL,QVAL,QORIG,QEVAL
DEF-01,AE,DEF-01-01-001,AESEQ,1,AETRTEM,Treatment Emergent Flag,Y,DERIVED,
DEF-01,AE,DEF-01-01-002,AESEQ,1,AETRTEM,Treatment Emergent Flag,Y,DERIVED,
DEF-01,AE,DEF-01-01-003,AESEQ,1,AETRTEM,Treatment Emergent Flag,Y,DERIVED,
DEF-01,AE,DEF-01-02-001,AESEQ,1,AETRTEM,Treatment Emergent Flag,N,DERIVED,
DEF-01,AE,DEF-01-02-001,AESEQ,2,AETRTEM,Treatment Emergent Flag,Y,DERIVED,
DEF-01,AE,DEF-01-02-003,AESEQ,1,AETRTEM,Treatment Emergent Flag,Y,DERIVED,
DEF-01,AE,DEF-01-02-003,AESEQ,2,AETRTEM,Treatment Emergent Flag,Y,DERIVED,
