STUDYID,DOMAIN,USUBJID,CMSEQ,CMTRT,CMDECOD,CMINDC,CMDOSE,CMDOSU,CMDOSFRQ,CMROUTE,CMSTDTC,CMENDTC,CMSTDY,CMENDY
ABC-01,CM,ABC-01-01-001,1,Vitamin D,COLECALCIFEROL,supplementation,1000,IU,QD,ORAL,2024-01-01,,-60,
ABC-01,CM,ABC-01-01-001,2,Paracetamol,PARACETAMOL,headache,500,mg,PRN,ORAL,2024-03-15,2024-03-16,15,16
ABC-01,CM,ABC-01-01-002,1,Lisinopril,LISINOPRIL,hypertension,10,mg,QD,ORAL,2024-02-01,,-32,
ABC-01,CM,ABC-01-01-004,1,Amlodipine,AMLODIPINE,high blood pressure,5,mg,QD,ORAL,2024-01-05,,-61,
ABC-01,CM,ABC-01-02-001,1,Aspirin,ACETYLSALICYLIC ACID,headache,100,mg,PRN,ORAL,2024-03-15,2024-03-15,5,5
ABC-01,CM,ABC-01-02-002,1,Ondansetron,ONDANSETRON,vomiting,4,mg,PRN,ORAL,2024-03-20,2024-03-21,9,10
ABC-01,CM,ABC-01-02-003,1,Hydrocortisone cream,HYDROCORTISONE,rash,1,%,BID,TOPICAL,2024-03-25,2024-03-30,12,17
ABC-01,CM,ABC-01-02-004,1,Metformin,METFORMIN,type 2 diabetes,500,mg,BID,ORAL,2023-12-10,,-96,
