STUDYID,DOMAIN,USUBJID,EXSEQ,EXTRT,EXDOSE,EXDOSU,EXDOSFRQ,EXROUTE,EXSTDTC,EXENDTC,EXSTDY,EXENDY
ABC-01,EX,ABC-01-01-001,1,Drug A,50,mg,QD,ORAL,2024-03-01,2024-03-28,1,28
ABC-01,EX,ABC-01-01-002,1,Placebo,0,mg,QD,ORAL,2024-03-04,2024-03-31,1,28
ABC-01,EX,ABC-01-01-003,1,Drug A,50,mg,QD,ORAL,2024-03-05,2024-04-01,1,28
ABC-01,EX,ABC-01-01-004,1,Placebo,0,mg,QD,ORAL,2024-03-06,2024-03-25,1,20
ABC-01,EX,ABC-01-02-001,1,Drug A,50,mg,QD,ORAL,2024-03-11,2024-04-07,1,28
ABC-01,EX,ABC-01-02-002,1,Placebo,0,mg,QD,ORAL,2024-03-12,2024-04-08,1,28
ABC-01,EX,ABC-01-02-003,1,Drug A,50,mg,QD,ORAL,2024-03-14,2024-04-10,1,28
ABC-01,EX,ABC-01-02-004,1,Placebo,0,mg,QD,ORAL,2024-03-15,2024-04-11,1,28
